success,timeout,failed_images,failed_audio,failed_video,trial_type,trial_index,plugin_version,time_elapsed,random_id,participant_id,condition_name,participant,rt,stimulus,response,phase,trial_number,species_key,human_n,species_n,optionA_label,optionB_label,swap,left_is,right_is,left_label,middle_label,right_label,choice_options,comparison_label,chosen_option,choice_kind,saved_human,saved_animal,human_chosen,task,question_order,file_name
TRUE,FALSE,[],[],[],preload,0,2.0.0,2216,p1c8o1pd8dr,p1c8o1pd8dr,You,lion,NA,NA,NA,NA,NA,NA,NA,NA,NA,NA,NA,NA,NA,NA,NA,NA,NA,NA,NA,NA,NA,NA,NA,NA,NA,/Users/martincz/GitHub/COGS119/group_wi26_species_choices/analysis/../data/raw_data/p1c8o1pd8dr_1772490384489.csv
NA,NA,NA,NA,NA,html-keyboard-response,1,2.0.0,20236,p1c8o1pd8dr,p1c8o1pd8dr,You,lion,18019,Welcome to the experiment. Press any key to begin.,NA,NA,NA,NA,NA,NA,NA,NA,NA,NA,NA,NA,NA,NA,NA,NA,NA,NA,NA,NA,NA,NA,NA,/Users/martincz/GitHub/COGS119/group_wi26_species_choices/analysis/../data/raw_data/p1c8o1pd8dr_1772490384489.csv
NA,NA,NA,NA,NA,survey-text,2,2.0.0,22892,p1c8o1pd8dr,p1c8o1pd8dr,You,lion,2654,NA,"{""participant_id"":""lion""}",NA,NA,NA,NA,NA,NA,NA,NA,NA,NA,NA,NA,NA,NA,NA,NA,NA,NA,NA,NA,NA,NA,/Users/martincz/GitHub/COGS119/group_wi26_species_choices/analysis/../data/raw_data/p1c8o1pd8dr_1772490384489.csv
TRUE,NA,NA,NA,NA,fullscreen,3,2.0.0,81570,p1c8o1pd8dr,p1c8o1pd8dr,You,lion,57674,NA,NA,NA,NA,NA,NA,NA,NA,NA,NA,NA,NA,NA,NA,NA,NA,NA,NA,NA,NA,NA,NA,NA,NA,/Users/martincz/GitHub/COGS119/group_wi26_species_choices/analysis/../data/raw_data/p1c8o1pd8dr_1772490384489.csv
NA,NA,NA,NA,NA,html-keyboard-response,4,2.0.0,108932,p1c8o1pd8dr,p1c8o1pd8dr,You,lion,27361,"<p>You will be asked you some moral questions in which you have to make
                choices. These questions can be hard to decide. There is no right or wrong
                answer - choose whatever you personally think is right. Please
                carefully consider each question.</p>
                <p>Press any key to begin.</p>",NA,NA,NA,NA,NA,NA,NA,NA,NA,NA,NA,NA,NA,NA,NA,NA,NA,NA,NA,NA,NA,NA,NA,/Users/martincz/GitHub/COGS119/group_wi26_species_choices/analysis/../data/raw_data/p1c8o1pd8dr_1772490384489.csv
NA,NA,NA,NA,NA,html-keyboard-response,5,2.0.0,119716,p1c8o1pd8dr,p1c8o1pd8dr,You,lion,10783,"
      <p>
        Imagine a situation involving two boats, one with humans and one with animals. Both of these boats are sinking.
        Unfortunately, the species on either of these boats are unable to swim. However, You can
        choose one boat to save. Once You chooses a boat, the people or animals on that boat will
        be safe, but the people or animals on the other boat will not survive.
      </p>

      <div style=""display: flex; justify-content: center; align-items: center; gap: 40px; margin-top: 30px;"">
        <img src=""stimuli/boat.png"" style=""width:150px;"">
        <img src=""stimuli/cant decide.png"" style=""width:150px;"">
        <img src=""stimuli/boat.png"" style=""width:150px;"">
      </div>
",NA,NA,NA,NA,NA,NA,NA,NA,NA,NA,NA,NA,NA,NA,NA,NA,NA,NA,NA,NA,NA,NA,NA,/Users/martincz/GitHub/COGS119/group_wi26_species_choices/analysis/../data/raw_data/p1c8o1pd8dr_1772490384489.csv
NA,NA,NA,NA,NA,html-button-response,6,2.0.0,123845,p1c8o1pd8dr,p1c8o1pd8dr,You,lion,4127,"On one boat there is <b>10 people</b> and the other boat there is <b>100 cats</b>.
                 Will <b>You</b> save...",0,main_choice,0,cat,10,100,10 people,100 cats,FALSE,A,B,10 people,Can't decide,100 cats,"[""10 people"",""Can't decide"",""100 cats""]",10 people vs 100 cats,10 people,human,1,0,1,NA,NA,/Users/martincz/GitHub/COGS119/group_wi26_species_choices/analysis/../data/raw_data/p1c8o1pd8dr_1772490384489.csv
NA,NA,NA,NA,NA,html-keyboard-response,7,2.0.0,124346,p1c8o1pd8dr,p1c8o1pd8dr,You,lion,null,"<div style=""font-size:40px; opacity:0.6;"">+</div>",null,NA,NA,NA,NA,NA,NA,NA,NA,NA,NA,NA,NA,NA,NA,NA,NA,NA,NA,NA,NA,iti,NA,/Users/martincz/GitHub/COGS119/group_wi26_species_choices/analysis/../data/raw_data/p1c8o1pd8dr_1772490384489.csv
NA,NA,NA,NA,NA,html-button-response,8,2.0.0,127245,p1c8o1pd8dr,p1c8o1pd8dr,You,lion,2897,"On one boat there is <b>100 people</b> and the other boat there is <b>1 clam</b>.
                 Will <b>You</b> save...",0,main_choice,1,clam,100,1,100 people,1 clam,FALSE,A,B,100 people,Can't decide,1 clam,"[""100 people"",""Can't decide"",""1 clam""]",100 people vs 1 clam,100 people,human,1,0,1,NA,NA,/Users/martincz/GitHub/COGS119/group_wi26_species_choices/analysis/../data/raw_data/p1c8o1pd8dr_1772490384489.csv
NA,NA,NA,NA,NA,html-keyboard-response,9,2.0.0,127747,p1c8o1pd8dr,p1c8o1pd8dr,You,lion,null,"<div style=""font-size:40px; opacity:0.6;"">+</div>",null,NA,NA,NA,NA,NA,NA,NA,NA,NA,NA,NA,NA,NA,NA,NA,NA,NA,NA,NA,NA,iti,NA,/Users/martincz/GitHub/COGS119/group_wi26_species_choices/analysis/../data/raw_data/p1c8o1pd8dr_1772490384489.csv
NA,NA,NA,NA,NA,html-button-response,10,2.0.0,137231,p1c8o1pd8dr,p1c8o1pd8dr,You,lion,9482,"On one boat there is <b>100 people</b> and the other boat there is <b>1 dog</b>.
                 Will <b>You</b> save...",2,main_choice,2,dog,100,1,100 people,1 dog,TRUE,B,A,1 dog,Can't decide,100 people,"[""1 dog"",""Can't decide"",""100 people""]",100 people vs 1 dog,100 people,human,1,0,1,NA,NA,/Users/martincz/GitHub/COGS119/group_wi26_species_choices/analysis/../data/raw_data/p1c8o1pd8dr_1772490384489.csv
NA,NA,NA,NA,NA,html-keyboard-response,11,2.0.0,137733,p1c8o1pd8dr,p1c8o1pd8dr,You,lion,null,"<div style=""font-size:40px; opacity:0.6;"">+</div>",null,NA,NA,NA,NA,NA,NA,NA,NA,NA,NA,NA,NA,NA,NA,NA,NA,NA,NA,NA,NA,iti,NA,/Users/martincz/GitHub/COGS119/group_wi26_species_choices/analysis/../data/raw_data/p1c8o1pd8dr_1772490384489.csv
NA,NA,NA,NA,NA,html-button-response,12,2.0.0,139764,p1c8o1pd8dr,p1c8o1pd8dr,You,lion,2030,"On one boat there is <b>1 person</b> and the other boat there is <b>100 pigs</b>.
                 Will <b>You</b> save...",0,main_choice,3,pig,1,100,1 person,100 pigs,FALSE,A,B,1 person,Can't decide,100 pigs,"[""1 person"",""Can't decide"",""100 pigs""]",1 person vs 100 pigs,1 person,human,1,0,1,NA,NA,/Users/martincz/GitHub/COGS119/group_wi26_species_choices/analysis/../data/raw_data/p1c8o1pd8dr_1772490384489.csv
NA,NA,NA,NA,NA,html-keyboard-response,13,2.0.0,140266,p1c8o1pd8dr,p1c8o1pd8dr,You,lion,null,"<div style=""font-size:40px; opacity:0.6;"">+</div>",null,NA,NA,NA,NA,NA,NA,NA,NA,NA,NA,NA,NA,NA,NA,NA,NA,NA,NA,NA,NA,iti,NA,/Users/martincz/GitHub/COGS119/group_wi26_species_choices/analysis/../data/raw_data/p1c8o1pd8dr_1772490384489.csv
NA,NA,NA,NA,NA,html-button-response,14,2.0.0,141598,p1c8o1pd8dr,p1c8o1pd8dr,You,lion,1331,"On one boat there is <b>100 people</b> and the other boat there is <b>1 pig</b>.
                 Will <b>You</b> save...",2,main_choice,4,pig,100,1,100 people,1 pig,TRUE,B,A,1 pig,Can't decide,100 people,"[""1 pig"",""Can't decide"",""100 people""]",100 people vs 1 pig,100 people,human,1,0,1,NA,NA,/Users/martincz/GitHub/COGS119/group_wi26_species_choices/analysis/../data/raw_data/p1c8o1pd8dr_1772490384489.csv
NA,NA,NA,NA,NA,html-keyboard-response,15,2.0.0,142100,p1c8o1pd8dr,p1c8o1pd8dr,You,lion,null,"<div style=""font-size:40px; opacity:0.6;"">+</div>",null,NA,NA,NA,NA,NA,NA,NA,NA,NA,NA,NA,NA,NA,NA,NA,NA,NA,NA,NA,NA,iti,NA,/Users/martincz/GitHub/COGS119/group_wi26_species_choices/analysis/../data/raw_data/p1c8o1pd8dr_1772490384489.csv
NA,NA,NA,NA,NA,html-button-response,16,2.0.0,143498,p1c8o1pd8dr,p1c8o1pd8dr,You,lion,1397,"On one boat there is <b>1 person</b> and the other boat there is <b>1 clam</b>.
                 Will <b>You</b> save...",0,main_choice,5,clam,1,1,1 person,1 clam,FALSE,A,B,1 person,Can't decide,1 clam,"[""1 person"",""Can't decide"",""1 clam""]",1 person vs 1 clam,1 person,human,1,0,1,NA,NA,/Users/martincz/GitHub/COGS119/group_wi26_species_choices/analysis/../data/raw_data/p1c8o1pd8dr_1772490384489.csv
NA,NA,NA,NA,NA,html-keyboard-response,17,2.0.0,144000,p1c8o1pd8dr,p1c8o1pd8dr,You,lion,null,"<div style=""font-size:40px; opacity:0.6;"">+</div>",null,NA,NA,NA,NA,NA,NA,NA,NA,NA,NA,NA,NA,NA,NA,NA,NA,NA,NA,NA,NA,iti,NA,/Users/martincz/GitHub/COGS119/group_wi26_species_choices/analysis/../data/raw_data/p1c8o1pd8dr_1772490384489.csv
NA,NA,NA,NA,NA,html-button-response,18,2.0.0,146082,p1c8o1pd8dr,p1c8o1pd8dr,You,lion,2081,"On one boat there is <b>100 people</b> and the other boat there is <b>10 pigs</b>.
                 Will <b>You</b> save...",2,main_choice,6,pig,100,10,100 people,10 pigs,TRUE,B,A,10 pigs,Can't decide,100 people,"[""10 pigs"",""Can't decide"",""100 people""]",100 people vs 10 pigs,100 people,human,1,0,1,NA,NA,/Users/martincz/GitHub/COGS119/group_wi26_species_choices/analysis/../data/raw_data/p1c8o1pd8dr_1772490384489.csv
NA,NA,NA,NA,NA,html-keyboard-response,19,2.0.0,146584,p1c8o1pd8dr,p1c8o1pd8dr,You,lion,null,"<div style=""font-size:40px; opacity:0.6;"">+</div>",null,NA,NA,NA,NA,NA,NA,NA,NA,NA,NA,NA,NA,NA,NA,NA,NA,NA,NA,NA,NA,iti,NA,/Users/martincz/GitHub/COGS119/group_wi26_species_choices/analysis/../data/raw_data/p1c8o1pd8dr_1772490384489.csv
NA,NA,NA,NA,NA,html-button-response,20,2.0.0,147781,p1c8o1pd8dr,p1c8o1pd8dr,You,lion,1197,"On one boat there is <b>100 people</b> and the other boat there is <b>10 bunnies</b>.
                 Will <b>You</b> save...",0,main_choice,7,bunny,100,10,100 people,10 bunnies,FALSE,A,B,100 people,Can't decide,10 bunnies,"[""100 people"",""Can't decide"",""10 bunnies""]",100 people vs 10 bunnies,100 people,human,1,0,1,NA,NA,/Users/martincz/GitHub/COGS119/group_wi26_species_choices/analysis/../data/raw_data/p1c8o1pd8dr_1772490384489.csv
NA,NA,NA,NA,NA,html-keyboard-response,21,2.0.0,148283,p1c8o1pd8dr,p1c8o1pd8dr,You,lion,null,"<div style=""font-size:40px; opacity:0.6;"">+</div>",null,NA,NA,NA,NA,NA,NA,NA,NA,NA,NA,NA,NA,NA,NA,NA,NA,NA,NA,NA,NA,iti,NA,/Users/martincz/GitHub/COGS119/group_wi26_species_choices/analysis/../data/raw_data/p1c8o1pd8dr_1772490384489.csv
NA,NA,NA,NA,NA,html-button-response,22,2.0.0,149249,p1c8o1pd8dr,p1c8o1pd8dr,You,lion,964,"On one boat there is <b>100 people</b> and the other boat there is <b>10 dogs</b>.
                 Will <b>You</b> save...",0,main_choice,8,dog,100,10,100 people,10 dogs,FALSE,A,B,100 people,Can't decide,10 dogs,"[""100 people"",""Can't decide"",""10 dogs""]",100 people vs 10 dogs,100 people,human,1,0,1,NA,NA,/Users/martincz/GitHub/COGS119/group_wi26_species_choices/analysis/../data/raw_data/p1c8o1pd8dr_1772490384489.csv
NA,NA,NA,NA,NA,html-keyboard-response,23,2.0.0,149751,p1c8o1pd8dr,p1c8o1pd8dr,You,lion,null,"<div style=""font-size:40px; opacity:0.6;"">+</div>",null,NA,NA,NA,NA,NA,NA,NA,NA,NA,NA,NA,NA,NA,NA,NA,NA,NA,NA,NA,NA,iti,NA,/Users/martincz/GitHub/COGS119/group_wi26_species_choices/analysis/../data/raw_data/p1c8o1pd8dr_1772490384489.csv
NA,NA,NA,NA,NA,html-button-response,24,2.0.0,150666,p1c8o1pd8dr,p1c8o1pd8dr,You,lion,914,"On one boat there is <b>10 people</b> and the other boat there is <b>100 clams</b>.
                 Will <b>You</b> save...",2,main_choice,9,clam,10,100,10 people,100 clams,TRUE,B,A,100 clams,Can't decide,10 people,"[""100 clams"",""Can't decide"",""10 people""]",10 people vs 100 clams,10 people,human,1,0,1,NA,NA,/Users/martincz/GitHub/COGS119/group_wi26_species_choices/analysis/../data/raw_data/p1c8o1pd8dr_1772490384489.csv
NA,NA,NA,NA,NA,html-keyboard-response,25,2.0.0,151168,p1c8o1pd8dr,p1c8o1pd8dr,You,lion,null,"<div style=""font-size:40px; opacity:0.6;"">+</div>",null,NA,NA,NA,NA,NA,NA,NA,NA,NA,NA,NA,NA,NA,NA,NA,NA,NA,NA,NA,NA,iti,NA,/Users/martincz/GitHub/COGS119/group_wi26_species_choices/analysis/../data/raw_data/p1c8o1pd8dr_1772490384489.csv
NA,NA,NA,NA,NA,html-button-response,26,2.0.0,152050,p1c8o1pd8dr,p1c8o1pd8dr,You,lion,880,"On one boat there is <b>100 people</b> and the other boat there is <b>10 clams</b>.
                 Will <b>You</b> save...",2,main_choice,10,clam,100,10,100 people,10 clams,TRUE,B,A,10 clams,Can't decide,100 people,"[""10 clams"",""Can't decide"",""100 people""]",100 people vs 10 clams,100 people,human,1,0,1,NA,NA,/Users/martincz/GitHub/COGS119/group_wi26_species_choices/analysis/../data/raw_data/p1c8o1pd8dr_1772490384489.csv
NA,NA,NA,NA,NA,html-keyboard-response,27,2.0.0,152551,p1c8o1pd8dr,p1c8o1pd8dr,You,lion,null,"<div style=""font-size:40px; opacity:0.6;"">+</div>",null,NA,NA,NA,NA,NA,NA,NA,NA,NA,NA,NA,NA,NA,NA,NA,NA,NA,NA,NA,NA,iti,NA,/Users/martincz/GitHub/COGS119/group_wi26_species_choices/analysis/../data/raw_data/p1c8o1pd8dr_1772490384489.csv
NA,NA,NA,NA,NA,html-button-response,28,2.0.0,153900,p1c8o1pd8dr,p1c8o1pd8dr,You,lion,1348,"On one boat there is <b>1 person</b> and the other boat there is <b>1 pigeon</b>.
                 Will <b>You</b> save...",0,main_choice,11,pigeon,1,1,1 person,1 pigeon,FALSE,A,B,1 person,Can't decide,1 pigeon,"[""1 person"",""Can't decide"",""1 pigeon""]",1 person vs 1 pigeon,1 person,human,1,0,1,NA,NA,/Users/martincz/GitHub/COGS119/group_wi26_species_choices/analysis/../data/raw_data/p1c8o1pd8dr_1772490384489.csv
NA,NA,NA,NA,NA,html-keyboard-response,29,2.0.0,154402,p1c8o1pd8dr,p1c8o1pd8dr,You,lion,null,"<div style=""font-size:40px; opacity:0.6;"">+</div>",null,NA,NA,NA,NA,NA,NA,NA,NA,NA,NA,NA,NA,NA,NA,NA,NA,NA,NA,NA,NA,iti,NA,/Users/martincz/GitHub/COGS119/group_wi26_species_choices/analysis/../data/raw_data/p1c8o1pd8dr_1772490384489.csv
NA,NA,NA,NA,NA,html-button-response,30,2.0.0,155283,p1c8o1pd8dr,p1c8o1pd8dr,You,lion,880,"On one boat there is <b>1 person</b> and the other boat there is <b>1 pig</b>.
                 Will <b>You</b> save...",2,main_choice,12,pig,1,1,1 person,1 pig,TRUE,B,A,1 pig,Can't decide,1 person,"[""1 pig"",""Can't decide"",""1 person""]",1 person vs 1 pig,1 person,human,1,0,1,NA,NA,/Users/martincz/GitHub/COGS119/group_wi26_species_choices/analysis/../data/raw_data/p1c8o1pd8dr_1772490384489.csv
NA,NA,NA,NA,NA,html-keyboard-response,31,2.0.0,155785,p1c8o1pd8dr,p1c8o1pd8dr,You,lion,null,"<div style=""font-size:40px; opacity:0.6;"">+</div>",null,NA,NA,NA,NA,NA,NA,NA,NA,NA,NA,NA,NA,NA,NA,NA,NA,NA,NA,NA,NA,iti,NA,/Users/martincz/GitHub/COGS119/group_wi26_species_choices/analysis/../data/raw_data/p1c8o1pd8dr_1772490384489.csv
NA,NA,NA,NA,NA,html-button-response,32,2.0.0,156667,p1c8o1pd8dr,p1c8o1pd8dr,You,lion,881,"On one boat there is <b>1 person</b> and the other boat there is <b>1 dog</b>.
                 Will <b>You</b> save...",2,main_choice,13,dog,1,1,1 person,1 dog,TRUE,B,A,1 dog,Can't decide,1 person,"[""1 dog"",""Can't decide"",""1 person""]",1 person vs 1 dog,1 person,human,1,0,1,NA,NA,/Users/martincz/GitHub/COGS119/group_wi26_species_choices/analysis/../data/raw_data/p1c8o1pd8dr_1772490384489.csv
NA,NA,NA,NA,NA,html-keyboard-response,33,2.0.0,157168,p1c8o1pd8dr,p1c8o1pd8dr,You,lion,null,"<div style=""font-size:40px; opacity:0.6;"">+</div>",null,NA,NA,NA,NA,NA,NA,NA,NA,NA,NA,NA,NA,NA,NA,NA,NA,NA,NA,NA,NA,iti,NA,/Users/martincz/GitHub/COGS119/group_wi26_species_choices/analysis/../data/raw_data/p1c8o1pd8dr_1772490384489.csv
NA,NA,NA,NA,NA,html-button-response,34,2.0.0,158467,p1c8o1pd8dr,p1c8o1pd8dr,You,lion,1298,"On one boat there is <b>10 people</b> and the other boat there is <b>1 bunny</b>.
                 Will <b>You</b> save...",0,main_choice,14,bunny,10,1,10 people,1 bunny,FALSE,A,B,10 people,Can't decide,1 bunny,"[""10 people"",""Can't decide"",""1 bunny""]",10 people vs 1 bunny,10 people,human,1,0,1,NA,NA,/Users/martincz/GitHub/COGS119/group_wi26_species_choices/analysis/../data/raw_data/p1c8o1pd8dr_1772490384489.csv
NA,NA,NA,NA,NA,html-keyboard-response,35,2.0.0,158969,p1c8o1pd8dr,p1c8o1pd8dr,You,lion,null,"<div style=""font-size:40px; opacity:0.6;"">+</div>",null,NA,NA,NA,NA,NA,NA,NA,NA,NA,NA,NA,NA,NA,NA,NA,NA,NA,NA,NA,NA,iti,NA,/Users/martincz/GitHub/COGS119/group_wi26_species_choices/analysis/../data/raw_data/p1c8o1pd8dr_1772490384489.csv
NA,NA,NA,NA,NA,html-button-response,36,2.0.0,160000,p1c8o1pd8dr,p1c8o1pd8dr,You,lion,1030,"On one boat there is <b>1 person</b> and the other boat there is <b>100 pigeons</b>.
                 Will <b>You</b> save...",0,main_choice,15,pigeon,1,100,1 person,100 pigeons,FALSE,A,B,1 person,Can't decide,100 pigeons,"[""1 person"",""Can't decide"",""100 pigeons""]",1 person vs 100 pigeons,1 person,human,1,0,1,NA,NA,/Users/martincz/GitHub/COGS119/group_wi26_species_choices/analysis/../data/raw_data/p1c8o1pd8dr_1772490384489.csv
NA,NA,NA,NA,NA,html-keyboard-response,37,2.0.0,160501,p1c8o1pd8dr,p1c8o1pd8dr,You,lion,null,"<div style=""font-size:40px; opacity:0.6;"">+</div>",null,NA,NA,NA,NA,NA,NA,NA,NA,NA,NA,NA,NA,NA,NA,NA,NA,NA,NA,NA,NA,iti,NA,/Users/martincz/GitHub/COGS119/group_wi26_species_choices/analysis/../data/raw_data/p1c8o1pd8dr_1772490384489.csv
NA,NA,NA,NA,NA,html-button-response,38,2.0.0,161418,p1c8o1pd8dr,p1c8o1pd8dr,You,lion,916,"On one boat there is <b>1 person</b> and the other boat there is <b>100 clams</b>.
                 Will <b>You</b> save...",0,main_choice,16,clam,1,100,1 person,100 clams,FALSE,A,B,1 person,Can't decide,100 clams,"[""1 person"",""Can't decide"",""100 clams""]",1 person vs 100 clams,1 person,human,1,0,1,NA,NA,/Users/martincz/GitHub/COGS119/group_wi26_species_choices/analysis/../data/raw_data/p1c8o1pd8dr_1772490384489.csv
NA,NA,NA,NA,NA,html-keyboard-response,39,2.0.0,161920,p1c8o1pd8dr,p1c8o1pd8dr,You,lion,null,"<div style=""font-size:40px; opacity:0.6;"">+</div>",null,NA,NA,NA,NA,NA,NA,NA,NA,NA,NA,NA,NA,NA,NA,NA,NA,NA,NA,NA,NA,iti,NA,/Users/martincz/GitHub/COGS119/group_wi26_species_choices/analysis/../data/raw_data/p1c8o1pd8dr_1772490384489.csv
NA,NA,NA,NA,NA,html-button-response,40,2.0.0,163035,p1c8o1pd8dr,p1c8o1pd8dr,You,lion,1113,"On one boat there is <b>1 person</b> and the other boat there is <b>10 pigeons</b>.
                 Will <b>You</b> save...",0,main_choice,17,pigeon,1,10,1 person,10 pigeons,FALSE,A,B,1 person,Can't decide,10 pigeons,"[""1 person"",""Can't decide"",""10 pigeons""]",1 person vs 10 pigeons,1 person,human,1,0,1,NA,NA,/Users/martincz/GitHub/COGS119/group_wi26_species_choices/analysis/../data/raw_data/p1c8o1pd8dr_1772490384489.csv
NA,NA,NA,NA,NA,html-keyboard-response,41,2.0.0,163536,p1c8o1pd8dr,p1c8o1pd8dr,You,lion,null,"<div style=""font-size:40px; opacity:0.6;"">+</div>",null,NA,NA,NA,NA,NA,NA,NA,NA,NA,NA,NA,NA,NA,NA,NA,NA,NA,NA,NA,NA,iti,NA,/Users/martincz/GitHub/COGS119/group_wi26_species_choices/analysis/../data/raw_data/p1c8o1pd8dr_1772490384489.csv
NA,NA,NA,NA,NA,html-button-response,42,2.0.0,164318,p1c8o1pd8dr,p1c8o1pd8dr,You,lion,781,"On one boat there is <b>1 person</b> and the other boat there is <b>100 bunnies</b>.
                 Will <b>You</b> save...",0,main_choice,18,bunny,1,100,1 person,100 bunnies,FALSE,A,B,1 person,Can't decide,100 bunnies,"[""1 person"",""Can't decide"",""100 bunnies""]",1 person vs 100 bunnies,1 person,human,1,0,1,NA,NA,/Users/martincz/GitHub/COGS119/group_wi26_species_choices/analysis/../data/raw_data/p1c8o1pd8dr_1772490384489.csv
NA,NA,NA,NA,NA,html-keyboard-response,43,2.0.0,164819,p1c8o1pd8dr,p1c8o1pd8dr,You,lion,null,"<div style=""font-size:40px; opacity:0.6;"">+</div>",null,NA,NA,NA,NA,NA,NA,NA,NA,NA,NA,NA,NA,NA,NA,NA,NA,NA,NA,NA,NA,iti,NA,/Users/martincz/GitHub/COGS119/group_wi26_species_choices/analysis/../data/raw_data/p1c8o1pd8dr_1772490384489.csv
NA,NA,NA,NA,NA,html-button-response,44,2.0.0,180304,p1c8o1pd8dr,p1c8o1pd8dr,You,lion,15484,"On one boat there is <b>10 people</b> and the other boat there is <b>1 pig</b>.
                 Will <b>You</b> save...",0,main_choice,19,pig,10,1,10 people,1 pig,FALSE,A,B,10 people,Can't decide,1 pig,"[""10 people"",""Can't decide"",""1 pig""]",10 people vs 1 pig,10 people,human,1,0,1,NA,NA,/Users/martincz/GitHub/COGS119/group_wi26_species_choices/analysis/../data/raw_data/p1c8o1pd8dr_1772490384489.csv
NA,NA,NA,NA,NA,html-keyboard-response,45,2.0.0,180806,p1c8o1pd8dr,p1c8o1pd8dr,You,lion,null,"<div style=""font-size:40px; opacity:0.6;"">+</div>",null,NA,NA,NA,NA,NA,NA,NA,NA,NA,NA,NA,NA,NA,NA,NA,NA,NA,NA,NA,NA,iti,NA,/Users/martincz/GitHub/COGS119/group_wi26_species_choices/analysis/../data/raw_data/p1c8o1pd8dr_1772490384489.csv
NA,NA,NA,NA,NA,html-button-response,46,2.0.0,181756,p1c8o1pd8dr,p1c8o1pd8dr,You,lion,948,"On one boat there is <b>10 people</b> and the other boat there is <b>1 pigeon</b>.
                 Will <b>You</b> save...",2,main_choice,20,pigeon,10,1,10 people,1 pigeon,TRUE,B,A,1 pigeon,Can't decide,10 people,"[""1 pigeon"",""Can't decide"",""10 people""]",10 people vs 1 pigeon,10 people,human,1,0,1,NA,NA,/Users/martincz/GitHub/COGS119/group_wi26_species_choices/analysis/../data/raw_data/p1c8o1pd8dr_1772490384489.csv
NA,NA,NA,NA,NA,html-keyboard-response,47,2.0.0,182258,p1c8o1pd8dr,p1c8o1pd8dr,You,lion,null,"<div style=""font-size:40px; opacity:0.6;"">+</div>",null,NA,NA,NA,NA,NA,NA,NA,NA,NA,NA,NA,NA,NA,NA,NA,NA,NA,NA,NA,NA,iti,NA,/Users/martincz/GitHub/COGS119/group_wi26_species_choices/analysis/../data/raw_data/p1c8o1pd8dr_1772490384489.csv
NA,NA,NA,NA,NA,html-button-response,48,2.0.0,183406,p1c8o1pd8dr,p1c8o1pd8dr,You,lion,1147,"On one boat there is <b>100 people</b> and the other boat there is <b>10 pigeons</b>.
                 Will <b>You</b> save...",0,main_choice,21,pigeon,100,10,100 people,10 pigeons,FALSE,A,B,100 people,Can't decide,10 pigeons,"[""100 people"",""Can't decide"",""10 pigeons""]",100 people vs 10 pigeons,100 people,human,1,0,1,NA,NA,/Users/martincz/GitHub/COGS119/group_wi26_species_choices/analysis/../data/raw_data/p1c8o1pd8dr_1772490384489.csv
NA,NA,NA,NA,NA,html-keyboard-response,49,2.0.0,183908,p1c8o1pd8dr,p1c8o1pd8dr,You,lion,null,"<div style=""font-size:40px; opacity:0.6;"">+</div>",null,NA,NA,NA,NA,NA,NA,NA,NA,NA,NA,NA,NA,NA,NA,NA,NA,NA,NA,NA,NA,iti,NA,/Users/martincz/GitHub/COGS119/group_wi26_species_choices/analysis/../data/raw_data/p1c8o1pd8dr_1772490384489.csv
NA,NA,NA,NA,NA,html-button-response,50,2.0.0,184506,p1c8o1pd8dr,p1c8o1pd8dr,You,lion,597,"On one boat there is <b>100 people</b> and the other boat there is <b>1 pigeon</b>.
                 Will <b>You</b> save...",0,main_choice,22,pigeon,100,1,100 people,1 pigeon,FALSE,A,B,100 people,Can't decide,1 pigeon,"[""100 people"",""Can't decide"",""1 pigeon""]",100 people vs 1 pigeon,100 people,human,1,0,1,NA,NA,/Users/martincz/GitHub/COGS119/group_wi26_species_choices/analysis/../data/raw_data/p1c8o1pd8dr_1772490384489.csv
NA,NA,NA,NA,NA,html-keyboard-response,51,2.0.0,185008,p1c8o1pd8dr,p1c8o1pd8dr,You,lion,null,"<div style=""font-size:40px; opacity:0.6;"">+</div>",null,NA,NA,NA,NA,NA,NA,NA,NA,NA,NA,NA,NA,NA,NA,NA,NA,NA,NA,NA,NA,iti,NA,/Users/martincz/GitHub/COGS119/group_wi26_species_choices/analysis/../data/raw_data/p1c8o1pd8dr_1772490384489.csv
NA,NA,NA,NA,NA,html-button-response,52,2.0.0,186023,p1c8o1pd8dr,p1c8o1pd8dr,You,lion,1014,"On one boat there is <b>10 people</b> and the other boat there is <b>100 bunnies</b>.
                 Will <b>You</b> save...",2,main_choice,23,bunny,10,100,10 people,100 bunnies,TRUE,B,A,100 bunnies,Can't decide,10 people,"[""100 bunnies"",""Can't decide"",""10 people""]",10 people vs 100 bunnies,10 people,human,1,0,1,NA,NA,/Users/martincz/GitHub/COGS119/group_wi26_species_choices/analysis/../data/raw_data/p1c8o1pd8dr_1772490384489.csv
NA,NA,NA,NA,NA,html-keyboard-response,53,2.0.0,186525,p1c8o1pd8dr,p1c8o1pd8dr,You,lion,null,"<div style=""font-size:40px; opacity:0.6;"">+</div>",null,NA,NA,NA,NA,NA,NA,NA,NA,NA,NA,NA,NA,NA,NA,NA,NA,NA,NA,NA,NA,iti,NA,/Users/martincz/GitHub/COGS119/group_wi26_species_choices/analysis/../data/raw_data/p1c8o1pd8dr_1772490384489.csv
NA,NA,NA,NA,NA,html-button-response,54,2.0.0,187423,p1c8o1pd8dr,p1c8o1pd8dr,You,lion,897,"On one boat there is <b>10 people</b> and the other boat there is <b>1 cat</b>.
                 Will <b>You</b> save...",0,main_choice,24,cat,10,1,10 people,1 cat,FALSE,A,B,10 people,Can't decide,1 cat,"[""10 people"",""Can't decide"",""1 cat""]",10 people vs 1 cat,10 people,human,1,0,1,NA,NA,/Users/martincz/GitHub/COGS119/group_wi26_species_choices/analysis/../data/raw_data/p1c8o1pd8dr_1772490384489.csv
NA,NA,NA,NA,NA,html-keyboard-response,55,2.0.0,187924,p1c8o1pd8dr,p1c8o1pd8dr,You,lion,null,"<div style=""font-size:40px; opacity:0.6;"">+</div>",null,NA,NA,NA,NA,NA,NA,NA,NA,NA,NA,NA,NA,NA,NA,NA,NA,NA,NA,NA,NA,iti,NA,/Users/martincz/GitHub/COGS119/group_wi26_species_choices/analysis/../data/raw_data/p1c8o1pd8dr_1772490384489.csv
NA,NA,NA,NA,NA,html-button-response,56,2.0.0,188707,p1c8o1pd8dr,p1c8o1pd8dr,You,lion,782,"On one boat there is <b>100 people</b> and the other boat there is <b>1 bunny</b>.
                 Will <b>You</b> save...",0,main_choice,25,bunny,100,1,100 people,1 bunny,FALSE,A,B,100 people,Can't decide,1 bunny,"[""100 people"",""Can't decide"",""1 bunny""]",100 people vs 1 bunny,100 people,human,1,0,1,NA,NA,/Users/martincz/GitHub/COGS119/group_wi26_species_choices/analysis/../data/raw_data/p1c8o1pd8dr_1772490384489.csv
NA,NA,NA,NA,NA,html-keyboard-response,57,2.0.0,189208,p1c8o1pd8dr,p1c8o1pd8dr,You,lion,null,"<div style=""font-size:40px; opacity:0.6;"">+</div>",null,NA,NA,NA,NA,NA,NA,NA,NA,NA,NA,NA,NA,NA,NA,NA,NA,NA,NA,NA,NA,iti,NA,/Users/martincz/GitHub/COGS119/group_wi26_species_choices/analysis/../data/raw_data/p1c8o1pd8dr_1772490384489.csv
NA,NA,NA,NA,NA,html-button-response,58,2.0.0,190090,p1c8o1pd8dr,p1c8o1pd8dr,You,lion,880,"On one boat there is <b>1 person</b> and the other boat there is <b>10 pigs</b>.
                 Will <b>You</b> save...",2,main_choice,26,pig,1,10,1 person,10 pigs,TRUE,B,A,10 pigs,Can't decide,1 person,"[""10 pigs"",""Can't decide"",""1 person""]",1 person vs 10 pigs,1 person,human,1,0,1,NA,NA,/Users/martincz/GitHub/COGS119/group_wi26_species_choices/analysis/../data/raw_data/p1c8o1pd8dr_1772490384489.csv
NA,NA,NA,NA,NA,html-keyboard-response,59,2.0.0,190591,p1c8o1pd8dr,p1c8o1pd8dr,You,lion,null,"<div style=""font-size:40px; opacity:0.6;"">+</div>",null,NA,NA,NA,NA,NA,NA,NA,NA,NA,NA,NA,NA,NA,NA,NA,NA,NA,NA,NA,NA,iti,NA,/Users/martincz/GitHub/COGS119/group_wi26_species_choices/analysis/../data/raw_data/p1c8o1pd8dr_1772490384489.csv
NA,NA,NA,NA,NA,html-button-response,60,2.0.0,191440,p1c8o1pd8dr,p1c8o1pd8dr,You,lion,848,"On one boat there is <b>1 person</b> and the other boat there is <b>1 bunny</b>.
                 Will <b>You</b> save...",0,main_choice,27,bunny,1,1,1 person,1 bunny,FALSE,A,B,1 person,Can't decide,1 bunny,"[""1 person"",""Can't decide"",""1 bunny""]",1 person vs 1 bunny,1 person,human,1,0,1,NA,NA,/Users/martincz/GitHub/COGS119/group_wi26_species_choices/analysis/../data/raw_data/p1c8o1pd8dr_1772490384489.csv
NA,NA,NA,NA,NA,html-keyboard-response,61,2.0.0,191942,p1c8o1pd8dr,p1c8o1pd8dr,You,lion,null,"<div style=""font-size:40px; opacity:0.6;"">+</div>",null,NA,NA,NA,NA,NA,NA,NA,NA,NA,NA,NA,NA,NA,NA,NA,NA,NA,NA,NA,NA,iti,NA,/Users/martincz/GitHub/COGS119/group_wi26_species_choices/analysis/../data/raw_data/p1c8o1pd8dr_1772490384489.csv
NA,NA,NA,NA,NA,html-button-response,62,2.0.0,192691,p1c8o1pd8dr,p1c8o1pd8dr,You,lion,748,"On one boat there is <b>10 people</b> and the other boat there is <b>100 dogs</b>.
                 Will <b>You</b> save...",2,main_choice,28,dog,10,100,10 people,100 dogs,TRUE,B,A,100 dogs,Can't decide,10 people,"[""100 dogs"",""Can't decide"",""10 people""]",10 people vs 100 dogs,10 people,human,1,0,1,NA,NA,/Users/martincz/GitHub/COGS119/group_wi26_species_choices/analysis/../data/raw_data/p1c8o1pd8dr_1772490384489.csv
NA,NA,NA,NA,NA,html-keyboard-response,63,2.0.0,193192,p1c8o1pd8dr,p1c8o1pd8dr,You,lion,null,"<div style=""font-size:40px; opacity:0.6;"">+</div>",null,NA,NA,NA,NA,NA,NA,NA,NA,NA,NA,NA,NA,NA,NA,NA,NA,NA,NA,NA,NA,iti,NA,/Users/martincz/GitHub/COGS119/group_wi26_species_choices/analysis/../data/raw_data/p1c8o1pd8dr_1772490384489.csv
NA,NA,NA,NA,NA,html-button-response,64,2.0.0,193874,p1c8o1pd8dr,p1c8o1pd8dr,You,lion,681,"On one boat there is <b>1 person</b> and the other boat there is <b>10 cats</b>.
                 Will <b>You</b> save...",0,main_choice,29,cat,1,10,1 person,10 cats,FALSE,A,B,1 person,Can't decide,10 cats,"[""1 person"",""Can't decide"",""10 cats""]",1 person vs 10 cats,1 person,human,1,0,1,NA,NA,/Users/martincz/GitHub/COGS119/group_wi26_species_choices/analysis/../data/raw_data/p1c8o1pd8dr_1772490384489.csv
NA,NA,NA,NA,NA,html-keyboard-response,65,2.0.0,194376,p1c8o1pd8dr,p1c8o1pd8dr,You,lion,null,"<div style=""font-size:40px; opacity:0.6;"">+</div>",null,NA,NA,NA,NA,NA,NA,NA,NA,NA,NA,NA,NA,NA,NA,NA,NA,NA,NA,NA,NA,iti,NA,/Users/martincz/GitHub/COGS119/group_wi26_species_choices/analysis/../data/raw_data/p1c8o1pd8dr_1772490384489.csv
NA,NA,NA,NA,NA,html-button-response,66,2.0.0,195191,p1c8o1pd8dr,p1c8o1pd8dr,You,lion,814,"On one boat there is <b>1 person</b> and the other boat there is <b>10 clams</b>.
                 Will <b>You</b> save...",2,main_choice,30,clam,1,10,1 person,10 clams,TRUE,B,A,10 clams,Can't decide,1 person,"[""10 clams"",""Can't decide"",""1 person""]",1 person vs 10 clams,1 person,human,1,0,1,NA,NA,/Users/martincz/GitHub/COGS119/group_wi26_species_choices/analysis/../data/raw_data/p1c8o1pd8dr_1772490384489.csv
NA,NA,NA,NA,NA,html-keyboard-response,67,2.0.0,195693,p1c8o1pd8dr,p1c8o1pd8dr,You,lion,null,"<div style=""font-size:40px; opacity:0.6;"">+</div>",null,NA,NA,NA,NA,NA,NA,NA,NA,NA,NA,NA,NA,NA,NA,NA,NA,NA,NA,NA,NA,iti,NA,/Users/martincz/GitHub/COGS119/group_wi26_species_choices/analysis/../data/raw_data/p1c8o1pd8dr_1772490384489.csv
NA,NA,NA,NA,NA,html-button-response,68,2.0.0,196742,p1c8o1pd8dr,p1c8o1pd8dr,You,lion,1047,"On one boat there is <b>100 people</b> and the other boat there is <b>10 cats</b>.
                 Will <b>You</b> save...",2,main_choice,31,cat,100,10,100 people,10 cats,TRUE,B,A,10 cats,Can't decide,100 people,"[""10 cats"",""Can't decide"",""100 people""]",100 people vs 10 cats,100 people,human,1,0,1,NA,NA,/Users/martincz/GitHub/COGS119/group_wi26_species_choices/analysis/../data/raw_data/p1c8o1pd8dr_1772490384489.csv
NA,NA,NA,NA,NA,html-keyboard-response,69,2.0.0,197243,p1c8o1pd8dr,p1c8o1pd8dr,You,lion,null,"<div style=""font-size:40px; opacity:0.6;"">+</div>",null,NA,NA,NA,NA,NA,NA,NA,NA,NA,NA,NA,NA,NA,NA,NA,NA,NA,NA,NA,NA,iti,NA,/Users/martincz/GitHub/COGS119/group_wi26_species_choices/analysis/../data/raw_data/p1c8o1pd8dr_1772490384489.csv
NA,NA,NA,NA,NA,html-button-response,70,2.0.0,198108,p1c8o1pd8dr,p1c8o1pd8dr,You,lion,864,"On one boat there is <b>100 people</b> and the other boat there is <b>1 cat</b>.
                 Will <b>You</b> save...",0,main_choice,32,cat,100,1,100 people,1 cat,FALSE,A,B,100 people,Can't decide,1 cat,"[""100 people"",""Can't decide"",""1 cat""]",100 people vs 1 cat,100 people,human,1,0,1,NA,NA,/Users/martincz/GitHub/COGS119/group_wi26_species_choices/analysis/../data/raw_data/p1c8o1pd8dr_1772490384489.csv
NA,NA,NA,NA,NA,html-keyboard-response,71,2.0.0,198610,p1c8o1pd8dr,p1c8o1pd8dr,You,lion,null,"<div style=""font-size:40px; opacity:0.6;"">+</div>",null,NA,NA,NA,NA,NA,NA,NA,NA,NA,NA,NA,NA,NA,NA,NA,NA,NA,NA,NA,NA,iti,NA,/Users/martincz/GitHub/COGS119/group_wi26_species_choices/analysis/../data/raw_data/p1c8o1pd8dr_1772490384489.csv
NA,NA,NA,NA,NA,html-button-response,72,2.0.0,199208,p1c8o1pd8dr,p1c8o1pd8dr,You,lion,597,"On one boat there is <b>10 people</b> and the other boat there is <b>100 pigeons</b>.
                 Will <b>You</b> save...",0,main_choice,33,pigeon,10,100,10 people,100 pigeons,FALSE,A,B,10 people,Can't decide,100 pigeons,"[""10 people"",""Can't decide"",""100 pigeons""]",10 people vs 100 pigeons,10 people,human,1,0,1,NA,NA,/Users/martincz/GitHub/COGS119/group_wi26_species_choices/analysis/../data/raw_data/p1c8o1pd8dr_1772490384489.csv
NA,NA,NA,NA,NA,html-keyboard-response,73,2.0.0,199709,p1c8o1pd8dr,p1c8o1pd8dr,You,lion,null,"<div style=""font-size:40px; opacity:0.6;"">+</div>",null,NA,NA,NA,NA,NA,NA,NA,NA,NA,NA,NA,NA,NA,NA,NA,NA,NA,NA,NA,NA,iti,NA,/Users/martincz/GitHub/COGS119/group_wi26_species_choices/analysis/../data/raw_data/p1c8o1pd8dr_1772490384489.csv
NA,NA,NA,NA,NA,html-button-response,74,2.0.0,200742,p1c8o1pd8dr,p1c8o1pd8dr,You,lion,1031,"On one boat there is <b>1 person</b> and the other boat there is <b>1 cat</b>.
                 Will <b>You</b> save...",0,main_choice,34,cat,1,1,1 person,1 cat,FALSE,A,B,1 person,Can't decide,1 cat,"[""1 person"",""Can't decide"",""1 cat""]",1 person vs 1 cat,1 person,human,1,0,1,NA,NA,/Users/martincz/GitHub/COGS119/group_wi26_species_choices/analysis/../data/raw_data/p1c8o1pd8dr_1772490384489.csv
NA,NA,NA,NA,NA,html-keyboard-response,75,2.0.0,201243,p1c8o1pd8dr,p1c8o1pd8dr,You,lion,null,"<div style=""font-size:40px; opacity:0.6;"">+</div>",null,NA,NA,NA,NA,NA,NA,NA,NA,NA,NA,NA,NA,NA,NA,NA,NA,NA,NA,NA,NA,iti,NA,/Users/martincz/GitHub/COGS119/group_wi26_species_choices/analysis/../data/raw_data/p1c8o1pd8dr_1772490384489.csv
NA,NA,NA,NA,NA,html-button-response,76,2.0.0,201842,p1c8o1pd8dr,p1c8o1pd8dr,You,lion,598,"On one boat there is <b>1 person</b> and the other boat there is <b>10 bunnies</b>.
                 Will <b>You</b> save...",0,main_choice,35,bunny,1,10,1 person,10 bunnies,FALSE,A,B,1 person,Can't decide,10 bunnies,"[""1 person"",""Can't decide"",""10 bunnies""]",1 person vs 10 bunnies,1 person,human,1,0,1,NA,NA,/Users/martincz/GitHub/COGS119/group_wi26_species_choices/analysis/../data/raw_data/p1c8o1pd8dr_1772490384489.csv
NA,NA,NA,NA,NA,html-keyboard-response,77,2.0.0,202344,p1c8o1pd8dr,p1c8o1pd8dr,You,lion,null,"<div style=""font-size:40px; opacity:0.6;"">+</div>",null,NA,NA,NA,NA,NA,NA,NA,NA,NA,NA,NA,NA,NA,NA,NA,NA,NA,NA,NA,NA,iti,NA,/Users/martincz/GitHub/COGS119/group_wi26_species_choices/analysis/../data/raw_data/p1c8o1pd8dr_1772490384489.csv
NA,NA,NA,NA,NA,html-button-response,78,2.0.0,202892,p1c8o1pd8dr,p1c8o1pd8dr,You,lion,547,"On one boat there is <b>1 person</b> and the other boat there is <b>10 dogs</b>.
                 Will <b>You</b> save...",0,main_choice,36,dog,1,10,1 person,10 dogs,FALSE,A,B,1 person,Can't decide,10 dogs,"[""1 person"",""Can't decide"",""10 dogs""]",1 person vs 10 dogs,1 person,human,1,0,1,NA,NA,/Users/martincz/GitHub/COGS119/group_wi26_species_choices/analysis/../data/raw_data/p1c8o1pd8dr_1772490384489.csv
NA,NA,NA,NA,NA,html-keyboard-response,79,2.0.0,203394,p1c8o1pd8dr,p1c8o1pd8dr,You,lion,null,"<div style=""font-size:40px; opacity:0.6;"">+</div>",null,NA,NA,NA,NA,NA,NA,NA,NA,NA,NA,NA,NA,NA,NA,NA,NA,NA,NA,NA,NA,iti,NA,/Users/martincz/GitHub/COGS119/group_wi26_species_choices/analysis/../data/raw_data/p1c8o1pd8dr_1772490384489.csv
NA,NA,NA,NA,NA,html-button-response,80,2.0.0,204276,p1c8o1pd8dr,p1c8o1pd8dr,You,lion,881,"On one boat there is <b>10 people</b> and the other boat there is <b>100 pigs</b>.
                 Will <b>You</b> save...",2,main_choice,37,pig,10,100,10 people,100 pigs,TRUE,B,A,100 pigs,Can't decide,10 people,"[""100 pigs"",""Can't decide"",""10 people""]",10 people vs 100 pigs,10 people,human,1,0,1,NA,NA,/Users/martincz/GitHub/COGS119/group_wi26_species_choices/analysis/../data/raw_data/p1c8o1pd8dr_1772490384489.csv
NA,NA,NA,NA,NA,html-keyboard-response,81,2.0.0,204777,p1c8o1pd8dr,p1c8o1pd8dr,You,lion,null,"<div style=""font-size:40px; opacity:0.6;"">+</div>",null,NA,NA,NA,NA,NA,NA,NA,NA,NA,NA,NA,NA,NA,NA,NA,NA,NA,NA,NA,NA,iti,NA,/Users/martincz/GitHub/COGS119/group_wi26_species_choices/analysis/../data/raw_data/p1c8o1pd8dr_1772490384489.csv
NA,NA,NA,NA,NA,html-button-response,82,2.0.0,206627,p1c8o1pd8dr,p1c8o1pd8dr,You,lion,1848,"On one boat there is <b>1 person</b> and the other boat there is <b>100 cats</b>.
                 Will <b>You</b> save...",2,main_choice,38,cat,1,100,1 person,100 cats,FALSE,A,B,1 person,Can't decide,100 cats,"[""1 person"",""Can't decide"",""100 cats""]",1 person vs 100 cats,100 cats,animal,0,1,0,NA,NA,/Users/martincz/GitHub/COGS119/group_wi26_species_choices/analysis/../data/raw_data/p1c8o1pd8dr_1772490384489.csv
NA,NA,NA,NA,NA,html-keyboard-response,83,2.0.0,207128,p1c8o1pd8dr,p1c8o1pd8dr,You,lion,null,"<div style=""font-size:40px; opacity:0.6;"">+</div>",null,NA,NA,NA,NA,NA,NA,NA,NA,NA,NA,NA,NA,NA,NA,NA,NA,NA,NA,NA,NA,iti,NA,/Users/martincz/GitHub/COGS119/group_wi26_species_choices/analysis/../data/raw_data/p1c8o1pd8dr_1772490384489.csv
NA,NA,NA,NA,NA,html-button-response,84,2.0.0,209093,p1c8o1pd8dr,p1c8o1pd8dr,You,lion,1964,"On one boat there is <b>1 person</b> and the other boat there is <b>100 dogs</b>.
                 Will <b>You</b> save...",2,main_choice,39,dog,1,100,1 person,100 dogs,FALSE,A,B,1 person,Can't decide,100 dogs,"[""1 person"",""Can't decide"",""100 dogs""]",1 person vs 100 dogs,100 dogs,animal,0,1,0,NA,NA,/Users/martincz/GitHub/COGS119/group_wi26_species_choices/analysis/../data/raw_data/p1c8o1pd8dr_1772490384489.csv
NA,NA,NA,NA,NA,html-keyboard-response,85,2.0.0,209595,p1c8o1pd8dr,p1c8o1pd8dr,You,lion,null,"<div style=""font-size:40px; opacity:0.6;"">+</div>",null,NA,NA,NA,NA,NA,NA,NA,NA,NA,NA,NA,NA,NA,NA,NA,NA,NA,NA,NA,NA,iti,NA,/Users/martincz/GitHub/COGS119/group_wi26_species_choices/analysis/../data/raw_data/p1c8o1pd8dr_1772490384489.csv
NA,NA,NA,NA,NA,html-button-response,86,2.0.0,210661,p1c8o1pd8dr,p1c8o1pd8dr,You,lion,1064,"On one boat there is <b>10 people</b> and the other boat there is <b>1 dog</b>.
                 Will <b>You</b> save...",2,main_choice,40,dog,10,1,10 people,1 dog,TRUE,B,A,1 dog,Can't decide,10 people,"[""1 dog"",""Can't decide"",""10 people""]",10 people vs 1 dog,10 people,human,1,0,1,NA,NA,/Users/martincz/GitHub/COGS119/group_wi26_species_choices/analysis/../data/raw_data/p1c8o1pd8dr_1772490384489.csv
NA,NA,NA,NA,NA,html-keyboard-response,87,2.0.0,211162,p1c8o1pd8dr,p1c8o1pd8dr,You,lion,null,"<div style=""font-size:40px; opacity:0.6;"">+</div>",null,NA,NA,NA,NA,NA,NA,NA,NA,NA,NA,NA,NA,NA,NA,NA,NA,NA,NA,NA,NA,iti,NA,/Users/martincz/GitHub/COGS119/group_wi26_species_choices/analysis/../data/raw_data/p1c8o1pd8dr_1772490384489.csv
NA,NA,NA,NA,NA,html-button-response,88,2.0.0,212043,p1c8o1pd8dr,p1c8o1pd8dr,You,lion,880,"On one boat there is <b>10 people</b> and the other boat there is <b>1 clam</b>.
                 Will <b>You</b> save...",0,main_choice,41,clam,10,1,10 people,1 clam,FALSE,A,B,10 people,Can't decide,1 clam,"[""10 people"",""Can't decide"",""1 clam""]",10 people vs 1 clam,10 people,human,1,0,1,NA,NA,/Users/martincz/GitHub/COGS119/group_wi26_species_choices/analysis/../data/raw_data/p1c8o1pd8dr_1772490384489.csv
NA,NA,NA,NA,NA,html-keyboard-response,89,2.0.0,212545,p1c8o1pd8dr,p1c8o1pd8dr,You,lion,null,"<div style=""font-size:40px; opacity:0.6;"">+</div>",null,NA,NA,NA,NA,NA,NA,NA,NA,NA,NA,NA,NA,NA,NA,NA,NA,NA,NA,NA,NA,iti,NA,/Users/martincz/GitHub/COGS119/group_wi26_species_choices/analysis/../data/raw_data/p1c8o1pd8dr_1772490384489.csv
NA,NA,NA,NA,NA,survey-likert,90,2.0.0,222379,p1c8o1pd8dr,p1c8o1pd8dr,You,lion,9833,NA,"{""smart_person"":3,""smart_dog"":0,""smart_pig"":0}",NA,NA,NA,NA,NA,NA,NA,NA,NA,NA,NA,NA,NA,NA,NA,NA,NA,NA,NA,NA,capacity_smart,"[0,1,2]",/Users/martincz/GitHub/COGS119/group_wi26_species_choices/analysis/../data/raw_data/p1c8o1pd8dr_1772490384489.csv
NA,NA,NA,NA,NA,survey-likert,91,2.0.0,271839,p1c8o1pd8dr,p1c8o1pd8dr,You,lion,49458,NA,"{""pain_person"":3,""pain_dog"":1,""pain_pig"":0}",NA,NA,NA,NA,NA,NA,NA,NA,NA,NA,NA,NA,NA,NA,NA,NA,NA,NA,NA,NA,capacity_pain,"[0,1,2]",/Users/martincz/GitHub/COGS119/group_wi26_species_choices/analysis/../data/raw_data/p1c8o1pd8dr_1772490384489.csv
NA,NA,NA,NA,NA,survey-likert,92,2.0.0,277874,p1c8o1pd8dr,p1c8o1pd8dr,You,lion,6033,NA,"{""emotion_person"":3,""emotion_dog"":1,""emotion_pig"":0}",NA,NA,NA,NA,NA,NA,NA,NA,NA,NA,NA,NA,NA,NA,NA,NA,NA,NA,NA,NA,capacity_emotion,"[0,1,2]",/Users/martincz/GitHub/COGS119/group_wi26_species_choices/analysis/../data/raw_data/p1c8o1pd8dr_1772490384489.csv
NA,NA,NA,NA,NA,survey-text,93,2.0.0,297237,p1c8o1pd8dr,p1c8o1pd8dr,You,lion,19361,NA,"{""Q0"":""morals\n""}",NA,NA,NA,NA,NA,NA,NA,NA,NA,NA,NA,NA,NA,NA,NA,NA,NA,NA,NA,NA,hypothesis_check,NA,/Users/martincz/GitHub/COGS119/group_wi26_species_choices/analysis/../data/raw_data/p1c8o1pd8dr_1772490384489.csv
NA,NA,NA,NA,NA,survey-likert,94,2.0.0,300487,p1c8o1pd8dr,p1c8o1pd8dr,You,lion,3249,NA,"{""Q0"":1}",NA,NA,NA,NA,NA,NA,NA,NA,NA,NA,NA,NA,NA,NA,NA,NA,NA,NA,NA,NA,difficulty_rating,[0],/Users/martincz/GitHub/COGS119/group_wi26_species_choices/analysis/../data/raw_data/p1c8o1pd8dr_1772490384489.csv
NA,NA,NA,NA,NA,survey-text,95,2.0.0,303222,p1c8o1pd8dr,p1c8o1pd8dr,You,lion,2733,NA,"{""Q0"":""no""}",NA,NA,NA,NA,NA,NA,NA,NA,NA,NA,NA,NA,NA,NA,NA,NA,NA,NA,NA,NA,technical_check,NA,/Users/martincz/GitHub/COGS119/group_wi26_species_choices/analysis/../data/raw_data/p1c8o1pd8dr_1772490384489.csv
NA,NA,NA,NA,NA,survey-multi-choice,96,2.0.0,333161,p1c8o1pd8dr,p1c8o1pd8dr,You,lion,29936,NA,"{""age_bracket"":""18 to 24"",""gender"":""Female"",""english_proficiency"":""Native / near-native"",""pet_ownership"":""Yes"",""diet"":""Omnivore""}",NA,NA,NA,NA,NA,NA,NA,NA,NA,NA,NA,NA,NA,NA,NA,NA,NA,NA,NA,NA,demographics,"[0,1,2,3,4]",/Users/martincz/GitHub/COGS119/group_wi26_species_choices/analysis/../data/raw_data/p1c8o1pd8dr_1772490384489.csv
TRUE,FALSE,[],[],[],preload,0,2.0.0,1681,p1dh73qts4t,p1dh73qts4t,You,beaver,NA,NA,NA,NA,NA,NA,NA,NA,NA,NA,NA,NA,NA,NA,NA,NA,NA,NA,NA,NA,NA,NA,NA,NA,NA,/Users/martincz/GitHub/COGS119/group_wi26_species_choices/analysis/../data/raw_data/p1dh73qts4t_1772139401019.csv
NA,NA,NA,NA,NA,html-keyboard-response,1,2.0.0,6732,p1dh73qts4t,p1dh73qts4t,You,beaver,5047,Welcome to the experiment. Press any key to begin.,NA,NA,NA,NA,NA,NA,NA,NA,NA,NA,NA,NA,NA,NA,NA,NA,NA,NA,NA,NA,NA,NA,NA,/Users/martincz/GitHub/COGS119/group_wi26_species_choices/analysis/../data/raw_data/p1dh73qts4t_1772139401019.csv
NA,NA,NA,NA,NA,survey-text,2,2.0.0,10222,p1dh73qts4t,p1dh73qts4t,You,beaver,3482,NA,"{""participant_id"":""beaver""}",NA,NA,NA,NA,NA,NA,NA,NA,NA,NA,NA,NA,NA,NA,NA,NA,NA,NA,NA,NA,NA,NA,/Users/martincz/GitHub/COGS119/group_wi26_species_choices/analysis/../data/raw_data/p1dh73qts4t_1772139401019.csv
TRUE,NA,NA,NA,NA,fullscreen,3,2.0.0,12264,p1dh73qts4t,p1dh73qts4t,You,beaver,1031,NA,NA,NA,NA,NA,NA,NA,NA,NA,NA,NA,NA,NA,NA,NA,NA,NA,NA,NA,NA,NA,NA,NA,NA,/Users/martincz/GitHub/COGS119/group_wi26_species_choices/analysis/../data/raw_data/p1dh73qts4t_1772139401019.csv
NA,NA,NA,NA,NA,html-keyboard-response,4,2.0.0,52277,p1dh73qts4t,p1dh73qts4t,You,beaver,40010,"<p>You will be asked you some moral questions in which you have to make
                choices. These questions can be hard to decide. There is no right or wrong
                answer - choose whatever you personally think is right. Please
                carefully consider each question.</p>
                <p>Press any key to begin.</p>",NA,NA,NA,NA,NA,NA,NA,NA,NA,NA,NA,NA,NA,NA,NA,NA,NA,NA,NA,NA,NA,NA,NA,/Users/martincz/GitHub/COGS119/group_wi26_species_choices/analysis/../data/raw_data/p1dh73qts4t_1772139401019.csv
NA,NA,NA,NA,NA,html-keyboard-response,5,2.0.0,65476,p1dh73qts4t,p1dh73qts4t,You,beaver,13195,"
      <p>
        Imagine a situation involving two boats, one with humans and one with animals. Both of these boats are sinking.
        Unfortunately, the species on either of these boats are unable to swim. However, You can
        choose one boat to save. Once You chooses a boat, the people or animals on that boat will
        be safe, but the people or animals on the other boat will not survive.
      </p>

      <div style=""display: flex; justify-content: center; align-items: center; gap: 40px; margin-top: 30px;"">
        <img src=""stimuli/boat.png"" style=""width:150px;"">
        <img src=""stimuli/cant decide.png"" style=""width:150px;"">
        <img src=""stimuli/boat.png"" style=""width:150px;"">
      </div>
",NA,NA,NA,NA,NA,NA,NA,NA,NA,NA,NA,NA,NA,NA,NA,NA,NA,NA,NA,NA,NA,NA,NA,/Users/martincz/GitHub/COGS119/group_wi26_species_choices/analysis/../data/raw_data/p1dh73qts4t_1772139401019.csv
NA,NA,NA,NA,NA,html-button-response,6,2.0.0,72617,p1dh73qts4t,p1dh73qts4t,You,beaver,7137,"On one boat there is <b>10 people</b> and the other boat there is <b>1 bunny</b>.
                 Will <b>You</b> save...",0,main_choice,0,bunny,10,1,10 people,1 bunny,FALSE,A,B,10 people,Can't decide,1 bunny,"[""10 people"",""Can't decide"",""1 bunny""]",10 people vs 1 bunny,10 people,human,1,0,1,NA,NA,/Users/martincz/GitHub/COGS119/group_wi26_species_choices/analysis/../data/raw_data/p1dh73qts4t_1772139401019.csv
NA,NA,NA,NA,NA,html-keyboard-response,7,2.0.0,73122,p1dh73qts4t,p1dh73qts4t,You,beaver,null,"<div style=""font-size:40px; opacity:0.6;"">+</div>",null,NA,NA,NA,NA,NA,NA,NA,NA,NA,NA,NA,NA,NA,NA,NA,NA,NA,NA,NA,NA,iti,NA,/Users/martincz/GitHub/COGS119/group_wi26_species_choices/analysis/../data/raw_data/p1dh73qts4t_1772139401019.csv
NA,NA,NA,NA,NA,html-button-response,8,2.0.0,97614,p1dh73qts4t,p1dh73qts4t,You,beaver,24487,"On one boat there is <b>100 people</b> and the other boat there is <b>10 dogs</b>.
                 Will <b>You</b> save...",2,main_choice,1,dog,100,10,100 people,10 dogs,TRUE,B,A,10 dogs,Can't decide,100 people,"[""10 dogs"",""Can't decide"",""100 people""]",100 people vs 10 dogs,100 people,human,1,0,1,NA,NA,/Users/martincz/GitHub/COGS119/group_wi26_species_choices/analysis/../data/raw_data/p1dh73qts4t_1772139401019.csv
NA,NA,NA,NA,NA,html-keyboard-response,9,2.0.0,98121,p1dh73qts4t,p1dh73qts4t,You,beaver,null,"<div style=""font-size:40px; opacity:0.6;"">+</div>",null,NA,NA,NA,NA,NA,NA,NA,NA,NA,NA,NA,NA,NA,NA,NA,NA,NA,NA,NA,NA,iti,NA,/Users/martincz/GitHub/COGS119/group_wi26_species_choices/analysis/../data/raw_data/p1dh73qts4t_1772139401019.csv
NA,NA,NA,NA,NA,html-button-response,10,2.0.0,105998,p1dh73qts4t,p1dh73qts4t,You,beaver,7874,"On one boat there is <b>100 people</b> and the other boat there is <b>1 cat</b>.
                 Will <b>You</b> save...",1,main_choice,2,cat,100,1,100 people,1 cat,TRUE,B,A,1 cat,Can't decide,100 people,"[""1 cat"",""Can't decide"",""100 people""]",100 people vs 1 cat,Can't decide,neutral,0,0,0,NA,NA,/Users/martincz/GitHub/COGS119/group_wi26_species_choices/analysis/../data/raw_data/p1dh73qts4t_1772139401019.csv
NA,NA,NA,NA,NA,html-keyboard-response,11,2.0.0,106517,p1dh73qts4t,p1dh73qts4t,You,beaver,null,"<div style=""font-size:40px; opacity:0.6;"">+</div>",null,NA,NA,NA,NA,NA,NA,NA,NA,NA,NA,NA,NA,NA,NA,NA,NA,NA,NA,NA,NA,iti,NA,/Users/martincz/GitHub/COGS119/group_wi26_species_choices/analysis/../data/raw_data/p1dh73qts4t_1772139401019.csv
NA,NA,NA,NA,NA,html-button-response,12,2.0.0,112297,p1dh73qts4t,p1dh73qts4t,You,beaver,5777,"On one boat there is <b>10 people</b> and the other boat there is <b>100 clams</b>.
                 Will <b>You</b> save...",0,main_choice,3,clam,10,100,10 people,100 clams,FALSE,A,B,10 people,Can't decide,100 clams,"[""10 people"",""Can't decide"",""100 clams""]",10 people vs 100 clams,10 people,human,1,0,1,NA,NA,/Users/martincz/GitHub/COGS119/group_wi26_species_choices/analysis/../data/raw_data/p1dh73qts4t_1772139401019.csv
NA,NA,NA,NA,NA,html-keyboard-response,13,2.0.0,112803,p1dh73qts4t,p1dh73qts4t,You,beaver,null,"<div style=""font-size:40px; opacity:0.6;"">+</div>",null,NA,NA,NA,NA,NA,NA,NA,NA,NA,NA,NA,NA,NA,NA,NA,NA,NA,NA,NA,NA,iti,NA,/Users/martincz/GitHub/COGS119/group_wi26_species_choices/analysis/../data/raw_data/p1dh73qts4t_1772139401019.csv
NA,NA,NA,NA,NA,html-button-response,14,2.0.0,117361,p1dh73qts4t,p1dh73qts4t,You,beaver,4554,"On one boat there is <b>10 people</b> and the other boat there is <b>1 pig</b>.
                 Will <b>You</b> save...",0,main_choice,4,pig,10,1,10 people,1 pig,FALSE,A,B,10 people,Can't decide,1 pig,"[""10 people"",""Can't decide"",""1 pig""]",10 people vs 1 pig,10 people,human,1,0,1,NA,NA,/Users/martincz/GitHub/COGS119/group_wi26_species_choices/analysis/../data/raw_data/p1dh73qts4t_1772139401019.csv
NA,NA,NA,NA,NA,html-keyboard-response,15,2.0.0,117871,p1dh73qts4t,p1dh73qts4t,You,beaver,null,"<div style=""font-size:40px; opacity:0.6;"">+</div>",null,NA,NA,NA,NA,NA,NA,NA,NA,NA,NA,NA,NA,NA,NA,NA,NA,NA,NA,NA,NA,iti,NA,/Users/martincz/GitHub/COGS119/group_wi26_species_choices/analysis/../data/raw_data/p1dh73qts4t_1772139401019.csv
NA,NA,NA,NA,NA,html-button-response,16,2.0.0,122037,p1dh73qts4t,p1dh73qts4t,You,beaver,4164,"On one boat there is <b>100 people</b> and the other boat there is <b>1 dog</b>.
                 Will <b>You</b> save...",0,main_choice,5,dog,100,1,100 people,1 dog,FALSE,A,B,100 people,Can't decide,1 dog,"[""100 people"",""Can't decide"",""1 dog""]",100 people vs 1 dog,100 people,human,1,0,1,NA,NA,/Users/martincz/GitHub/COGS119/group_wi26_species_choices/analysis/../data/raw_data/p1dh73qts4t_1772139401019.csv
NA,NA,NA,NA,NA,html-keyboard-response,17,2.0.0,122552,p1dh73qts4t,p1dh73qts4t,You,beaver,null,"<div style=""font-size:40px; opacity:0.6;"">+</div>",null,NA,NA,NA,NA,NA,NA,NA,NA,NA,NA,NA,NA,NA,NA,NA,NA,NA,NA,NA,NA,iti,NA,/Users/martincz/GitHub/COGS119/group_wi26_species_choices/analysis/../data/raw_data/p1dh73qts4t_1772139401019.csv
NA,NA,NA,NA,NA,html-button-response,18,2.0.0,132925,p1dh73qts4t,p1dh73qts4t,You,beaver,10370,"On one boat there is <b>10 people</b> and the other boat there is <b>1 cat</b>.
                 Will <b>You</b> save...",0,main_choice,6,cat,10,1,10 people,1 cat,TRUE,B,A,1 cat,Can't decide,10 people,"[""1 cat"",""Can't decide"",""10 people""]",10 people vs 1 cat,1 cat,animal,0,1,0,NA,NA,/Users/martincz/GitHub/COGS119/group_wi26_species_choices/analysis/../data/raw_data/p1dh73qts4t_1772139401019.csv
NA,NA,NA,NA,NA,html-keyboard-response,19,2.0.0,133430,p1dh73qts4t,p1dh73qts4t,You,beaver,null,"<div style=""font-size:40px; opacity:0.6;"">+</div>",null,NA,NA,NA,NA,NA,NA,NA,NA,NA,NA,NA,NA,NA,NA,NA,NA,NA,NA,NA,NA,iti,NA,/Users/martincz/GitHub/COGS119/group_wi26_species_choices/analysis/../data/raw_data/p1dh73qts4t_1772139401019.csv
NA,NA,NA,NA,NA,html-button-response,20,2.0.0,139319,p1dh73qts4t,p1dh73qts4t,You,beaver,5887,"On one boat there is <b>1 person</b> and the other boat there is <b>10 bunnies</b>.
                 Will <b>You</b> save...",2,main_choice,7,bunny,1,10,1 person,10 bunnies,FALSE,A,B,1 person,Can't decide,10 bunnies,"[""1 person"",""Can't decide"",""10 bunnies""]",1 person vs 10 bunnies,10 bunnies,animal,0,1,0,NA,NA,/Users/martincz/GitHub/COGS119/group_wi26_species_choices/analysis/../data/raw_data/p1dh73qts4t_1772139401019.csv
NA,NA,NA,NA,NA,html-keyboard-response,21,2.0.0,139829,p1dh73qts4t,p1dh73qts4t,You,beaver,null,"<div style=""font-size:40px; opacity:0.6;"">+</div>",null,NA,NA,NA,NA,NA,NA,NA,NA,NA,NA,NA,NA,NA,NA,NA,NA,NA,NA,NA,NA,iti,NA,/Users/martincz/GitHub/COGS119/group_wi26_species_choices/analysis/../data/raw_data/p1dh73qts4t_1772139401019.csv
NA,NA,NA,NA,NA,html-button-response,22,2.0.0,142418,p1dh73qts4t,p1dh73qts4t,You,beaver,2587,"On one boat there is <b>10 people</b> and the other boat there is <b>1 pigeon</b>.
                 Will <b>You</b> save...",2,main_choice,8,pigeon,10,1,10 people,1 pigeon,TRUE,B,A,1 pigeon,Can't decide,10 people,"[""1 pigeon"",""Can't decide"",""10 people""]",10 people vs 1 pigeon,10 people,human,1,0,1,NA,NA,/Users/martincz/GitHub/COGS119/group_wi26_species_choices/analysis/../data/raw_data/p1dh73qts4t_1772139401019.csv
NA,NA,NA,NA,NA,html-keyboard-response,23,2.0.0,142924,p1dh73qts4t,p1dh73qts4t,You,beaver,null,"<div style=""font-size:40px; opacity:0.6;"">+</div>",null,NA,NA,NA,NA,NA,NA,NA,NA,NA,NA,NA,NA,NA,NA,NA,NA,NA,NA,NA,NA,iti,NA,/Users/martincz/GitHub/COGS119/group_wi26_species_choices/analysis/../data/raw_data/p1dh73qts4t_1772139401019.csv
NA,NA,NA,NA,NA,html-button-response,24,2.0.0,146994,p1dh73qts4t,p1dh73qts4t,You,beaver,4068,"On one boat there is <b>100 people</b> and the other boat there is <b>10 bunnies</b>.
                 Will <b>You</b> save...",2,main_choice,9,bunny,100,10,100 people,10 bunnies,TRUE,B,A,10 bunnies,Can't decide,100 people,"[""10 bunnies"",""Can't decide"",""100 people""]",100 people vs 10 bunnies,100 people,human,1,0,1,NA,NA,/Users/martincz/GitHub/COGS119/group_wi26_species_choices/analysis/../data/raw_data/p1dh73qts4t_1772139401019.csv
NA,NA,NA,NA,NA,html-keyboard-response,25,2.0.0,147510,p1dh73qts4t,p1dh73qts4t,You,beaver,null,"<div style=""font-size:40px; opacity:0.6;"">+</div>",null,NA,NA,NA,NA,NA,NA,NA,NA,NA,NA,NA,NA,NA,NA,NA,NA,NA,NA,NA,NA,iti,NA,/Users/martincz/GitHub/COGS119/group_wi26_species_choices/analysis/../data/raw_data/p1dh73qts4t_1772139401019.csv
NA,NA,NA,NA,NA,html-button-response,26,2.0.0,153833,p1dh73qts4t,p1dh73qts4t,You,beaver,6321,"On one boat there is <b>1 person</b> and the other boat there is <b>100 pigeons</b>.
                 Will <b>You</b> save...",2,main_choice,10,pigeon,1,100,1 person,100 pigeons,FALSE,A,B,1 person,Can't decide,100 pigeons,"[""1 person"",""Can't decide"",""100 pigeons""]",1 person vs 100 pigeons,100 pigeons,animal,0,1,0,NA,NA,/Users/martincz/GitHub/COGS119/group_wi26_species_choices/analysis/../data/raw_data/p1dh73qts4t_1772139401019.csv
NA,NA,NA,NA,NA,html-keyboard-response,27,2.0.0,154347,p1dh73qts4t,p1dh73qts4t,You,beaver,null,"<div style=""font-size:40px; opacity:0.6;"">+</div>",null,NA,NA,NA,NA,NA,NA,NA,NA,NA,NA,NA,NA,NA,NA,NA,NA,NA,NA,NA,NA,iti,NA,/Users/martincz/GitHub/COGS119/group_wi26_species_choices/analysis/../data/raw_data/p1dh73qts4t_1772139401019.csv
NA,NA,NA,NA,NA,html-button-response,28,2.0.0,160549,p1dh73qts4t,p1dh73qts4t,You,beaver,6201,"On one boat there is <b>100 people</b> and the other boat there is <b>10 pigeons</b>.
                 Will <b>You</b> save...",0,main_choice,11,pigeon,100,10,100 people,10 pigeons,FALSE,A,B,100 people,Can't decide,10 pigeons,"[""100 people"",""Can't decide"",""10 pigeons""]",100 people vs 10 pigeons,100 people,human,1,0,1,NA,NA,/Users/martincz/GitHub/COGS119/group_wi26_species_choices/analysis/../data/raw_data/p1dh73qts4t_1772139401019.csv
NA,NA,NA,NA,NA,html-keyboard-response,29,2.0.0,161053,p1dh73qts4t,p1dh73qts4t,You,beaver,null,"<div style=""font-size:40px; opacity:0.6;"">+</div>",null,NA,NA,NA,NA,NA,NA,NA,NA,NA,NA,NA,NA,NA,NA,NA,NA,NA,NA,NA,NA,iti,NA,/Users/martincz/GitHub/COGS119/group_wi26_species_choices/analysis/../data/raw_data/p1dh73qts4t_1772139401019.csv
NA,NA,NA,NA,NA,html-button-response,30,2.0.0,165938,p1dh73qts4t,p1dh73qts4t,You,beaver,4882,"On one boat there is <b>1 person</b> and the other boat there is <b>10 cats</b>.
                 Will <b>You</b> save...",0,main_choice,12,cat,1,10,1 person,10 cats,TRUE,B,A,10 cats,Can't decide,1 person,"[""10 cats"",""Can't decide"",""1 person""]",1 person vs 10 cats,10 cats,animal,0,1,0,NA,NA,/Users/martincz/GitHub/COGS119/group_wi26_species_choices/analysis/../data/raw_data/p1dh73qts4t_1772139401019.csv
NA,NA,NA,NA,NA,html-keyboard-response,31,2.0.0,166445,p1dh73qts4t,p1dh73qts4t,You,beaver,null,"<div style=""font-size:40px; opacity:0.6;"">+</div>",null,NA,NA,NA,NA,NA,NA,NA,NA,NA,NA,NA,NA,NA,NA,NA,NA,NA,NA,NA,NA,iti,NA,/Users/martincz/GitHub/COGS119/group_wi26_species_choices/analysis/../data/raw_data/p1dh73qts4t_1772139401019.csv
NA,NA,NA,NA,NA,html-button-response,32,2.0.0,183364,p1dh73qts4t,p1dh73qts4t,You,beaver,16917,"On one boat there is <b>10 people</b> and the other boat there is <b>100 bunnies</b>.
                 Will <b>You</b> save...",2,main_choice,13,bunny,10,100,10 people,100 bunnies,FALSE,A,B,10 people,Can't decide,100 bunnies,"[""10 people"",""Can't decide"",""100 bunnies""]",10 people vs 100 bunnies,100 bunnies,animal,0,1,0,NA,NA,/Users/martincz/GitHub/COGS119/group_wi26_species_choices/analysis/../data/raw_data/p1dh73qts4t_1772139401019.csv
NA,NA,NA,NA,NA,html-keyboard-response,33,2.0.0,183870,p1dh73qts4t,p1dh73qts4t,You,beaver,null,"<div style=""font-size:40px; opacity:0.6;"">+</div>",null,NA,NA,NA,NA,NA,NA,NA,NA,NA,NA,NA,NA,NA,NA,NA,NA,NA,NA,NA,NA,iti,NA,/Users/martincz/GitHub/COGS119/group_wi26_species_choices/analysis/../data/raw_data/p1dh73qts4t_1772139401019.csv
NA,NA,NA,NA,NA,html-button-response,34,2.0.0,187290,p1dh73qts4t,p1dh73qts4t,You,beaver,3418,"On one boat there is <b>100 people</b> and the other boat there is <b>1 pig</b>.
                 Will <b>You</b> save...",2,main_choice,14,pig,100,1,100 people,1 pig,TRUE,B,A,1 pig,Can't decide,100 people,"[""1 pig"",""Can't decide"",""100 people""]",100 people vs 1 pig,100 people,human,1,0,1,NA,NA,/Users/martincz/GitHub/COGS119/group_wi26_species_choices/analysis/../data/raw_data/p1dh73qts4t_1772139401019.csv
NA,NA,NA,NA,NA,html-keyboard-response,35,2.0.0,187813,p1dh73qts4t,p1dh73qts4t,You,beaver,null,"<div style=""font-size:40px; opacity:0.6;"">+</div>",null,NA,NA,NA,NA,NA,NA,NA,NA,NA,NA,NA,NA,NA,NA,NA,NA,NA,NA,NA,NA,iti,NA,/Users/martincz/GitHub/COGS119/group_wi26_species_choices/analysis/../data/raw_data/p1dh73qts4t_1772139401019.csv
NA,NA,NA,NA,NA,html-button-response,36,2.0.0,190174,p1dh73qts4t,p1dh73qts4t,You,beaver,2358,"On one boat there is <b>100 people</b> and the other boat there is <b>10 clams</b>.
                 Will <b>You</b> save...",0,main_choice,15,clam,100,10,100 people,10 clams,FALSE,A,B,100 people,Can't decide,10 clams,"[""100 people"",""Can't decide"",""10 clams""]",100 people vs 10 clams,100 people,human,1,0,1,NA,NA,/Users/martincz/GitHub/COGS119/group_wi26_species_choices/analysis/../data/raw_data/p1dh73qts4t_1772139401019.csv
NA,NA,NA,NA,NA,html-keyboard-response,37,2.0.0,190678,p1dh73qts4t,p1dh73qts4t,You,beaver,null,"<div style=""font-size:40px; opacity:0.6;"">+</div>",null,NA,NA,NA,NA,NA,NA,NA,NA,NA,NA,NA,NA,NA,NA,NA,NA,NA,NA,NA,NA,iti,NA,/Users/martincz/GitHub/COGS119/group_wi26_species_choices/analysis/../data/raw_data/p1dh73qts4t_1772139401019.csv
NA,NA,NA,NA,NA,html-button-response,38,2.0.0,215719,p1dh73qts4t,p1dh73qts4t,You,beaver,25039,"On one boat there is <b>1 person</b> and the other boat there is <b>10 pigeons</b>.
                 Will <b>You</b> save...",2,main_choice,16,pigeon,1,10,1 person,10 pigeons,TRUE,B,A,10 pigeons,Can't decide,1 person,"[""10 pigeons"",""Can't decide"",""1 person""]",1 person vs 10 pigeons,1 person,human,1,0,1,NA,NA,/Users/martincz/GitHub/COGS119/group_wi26_species_choices/analysis/../data/raw_data/p1dh73qts4t_1772139401019.csv
NA,NA,NA,NA,NA,html-keyboard-response,39,2.0.0,216222,p1dh73qts4t,p1dh73qts4t,You,beaver,null,"<div style=""font-size:40px; opacity:0.6;"">+</div>",null,NA,NA,NA,NA,NA,NA,NA,NA,NA,NA,NA,NA,NA,NA,NA,NA,NA,NA,NA,NA,iti,NA,/Users/martincz/GitHub/COGS119/group_wi26_species_choices/analysis/../data/raw_data/p1dh73qts4t_1772139401019.csv
NA,NA,NA,NA,NA,html-button-response,40,2.0.0,225089,p1dh73qts4t,p1dh73qts4t,You,beaver,8863,"On one boat there is <b>1 person</b> and the other boat there is <b>1 cat</b>.
                 Will <b>You</b> save...",0,main_choice,17,cat,1,1,1 person,1 cat,TRUE,B,A,1 cat,Can't decide,1 person,"[""1 cat"",""Can't decide"",""1 person""]",1 person vs 1 cat,1 cat,animal,0,1,0,NA,NA,/Users/martincz/GitHub/COGS119/group_wi26_species_choices/analysis/../data/raw_data/p1dh73qts4t_1772139401019.csv
NA,NA,NA,NA,NA,html-keyboard-response,41,2.0.0,225596,p1dh73qts4t,p1dh73qts4t,You,beaver,null,"<div style=""font-size:40px; opacity:0.6;"">+</div>",null,NA,NA,NA,NA,NA,NA,NA,NA,NA,NA,NA,NA,NA,NA,NA,NA,NA,NA,NA,NA,iti,NA,/Users/martincz/GitHub/COGS119/group_wi26_species_choices/analysis/../data/raw_data/p1dh73qts4t_1772139401019.csv
NA,NA,NA,NA,NA,html-button-response,42,2.0.0,231543,p1dh73qts4t,p1dh73qts4t,You,beaver,5945,"On one boat there is <b>10 people</b> and the other boat there is <b>100 dogs</b>.
                 Will <b>You</b> save...",2,main_choice,18,dog,10,100,10 people,100 dogs,FALSE,A,B,10 people,Can't decide,100 dogs,"[""10 people"",""Can't decide"",""100 dogs""]",10 people vs 100 dogs,100 dogs,animal,0,1,0,NA,NA,/Users/martincz/GitHub/COGS119/group_wi26_species_choices/analysis/../data/raw_data/p1dh73qts4t_1772139401019.csv
NA,NA,NA,NA,NA,html-keyboard-response,43,2.0.0,232048,p1dh73qts4t,p1dh73qts4t,You,beaver,null,"<div style=""font-size:40px; opacity:0.6;"">+</div>",null,NA,NA,NA,NA,NA,NA,NA,NA,NA,NA,NA,NA,NA,NA,NA,NA,NA,NA,NA,NA,iti,NA,/Users/martincz/GitHub/COGS119/group_wi26_species_choices/analysis/../data/raw_data/p1dh73qts4t_1772139401019.csv
NA,NA,NA,NA,NA,html-button-response,44,2.0.0,260148,p1dh73qts4t,p1dh73qts4t,You,beaver,28097,"On one boat there is <b>10 people</b> and the other boat there is <b>1 dog</b>.
                 Will <b>You</b> save...",0,main_choice,19,dog,10,1,10 people,1 dog,FALSE,A,B,10 people,Can't decide,1 dog,"[""10 people"",""Can't decide"",""1 dog""]",10 people vs 1 dog,10 people,human,1,0,1,NA,NA,/Users/martincz/GitHub/COGS119/group_wi26_species_choices/analysis/../data/raw_data/p1dh73qts4t_1772139401019.csv
NA,NA,NA,NA,NA,html-keyboard-response,45,2.0.0,260659,p1dh73qts4t,p1dh73qts4t,You,beaver,null,"<div style=""font-size:40px; opacity:0.6;"">+</div>",null,NA,NA,NA,NA,NA,NA,NA,NA,NA,NA,NA,NA,NA,NA,NA,NA,NA,NA,NA,NA,iti,NA,/Users/martincz/GitHub/COGS119/group_wi26_species_choices/analysis/../data/raw_data/p1dh73qts4t_1772139401019.csv
NA,NA,NA,NA,NA,html-button-response,46,2.0.0,263802,p1dh73qts4t,p1dh73qts4t,You,beaver,3142,"On one boat there is <b>1 person</b> and the other boat there is <b>100 pigs</b>.
                 Will <b>You</b> save...",0,main_choice,20,pig,1,100,1 person,100 pigs,TRUE,B,A,100 pigs,Can't decide,1 person,"[""100 pigs"",""Can't decide"",""1 person""]",1 person vs 100 pigs,100 pigs,animal,0,1,0,NA,NA,/Users/martincz/GitHub/COGS119/group_wi26_species_choices/analysis/../data/raw_data/p1dh73qts4t_1772139401019.csv
NA,NA,NA,NA,NA,html-keyboard-response,47,2.0.0,264307,p1dh73qts4t,p1dh73qts4t,You,beaver,null,"<div style=""font-size:40px; opacity:0.6;"">+</div>",null,NA,NA,NA,NA,NA,NA,NA,NA,NA,NA,NA,NA,NA,NA,NA,NA,NA,NA,NA,NA,iti,NA,/Users/martincz/GitHub/COGS119/group_wi26_species_choices/analysis/../data/raw_data/p1dh73qts4t_1772139401019.csv
NA,NA,NA,NA,NA,html-button-response,48,2.0.0,266725,p1dh73qts4t,p1dh73qts4t,You,beaver,2415,"On one boat there is <b>100 people</b> and the other boat there is <b>1 bunny</b>.
                 Will <b>You</b> save...",0,main_choice,21,bunny,100,1,100 people,1 bunny,FALSE,A,B,100 people,Can't decide,1 bunny,"[""100 people"",""Can't decide"",""1 bunny""]",100 people vs 1 bunny,100 people,human,1,0,1,NA,NA,/Users/martincz/GitHub/COGS119/group_wi26_species_choices/analysis/../data/raw_data/p1dh73qts4t_1772139401019.csv
NA,NA,NA,NA,NA,html-keyboard-response,49,2.0.0,267236,p1dh73qts4t,p1dh73qts4t,You,beaver,null,"<div style=""font-size:40px; opacity:0.6;"">+</div>",null,NA,NA,NA,NA,NA,NA,NA,NA,NA,NA,NA,NA,NA,NA,NA,NA,NA,NA,NA,NA,iti,NA,/Users/martincz/GitHub/COGS119/group_wi26_species_choices/analysis/../data/raw_data/p1dh73qts4t_1772139401019.csv
NA,NA,NA,NA,NA,html-button-response,50,2.0.0,271060,p1dh73qts4t,p1dh73qts4t,You,beaver,3822,"On one boat there is <b>1 person</b> and the other boat there is <b>100 cats</b>.
                 Will <b>You</b> save...",0,main_choice,22,cat,1,100,1 person,100 cats,TRUE,B,A,100 cats,Can't decide,1 person,"[""100 cats"",""Can't decide"",""1 person""]",1 person vs 100 cats,100 cats,animal,0,1,0,NA,NA,/Users/martincz/GitHub/COGS119/group_wi26_species_choices/analysis/../data/raw_data/p1dh73qts4t_1772139401019.csv
NA,NA,NA,NA,NA,html-keyboard-response,51,2.0.0,271564,p1dh73qts4t,p1dh73qts4t,You,beaver,null,"<div style=""font-size:40px; opacity:0.6;"">+</div>",null,NA,NA,NA,NA,NA,NA,NA,NA,NA,NA,NA,NA,NA,NA,NA,NA,NA,NA,NA,NA,iti,NA,/Users/martincz/GitHub/COGS119/group_wi26_species_choices/analysis/../data/raw_data/p1dh73qts4t_1772139401019.csv
NA,NA,NA,NA,NA,html-button-response,52,2.0.0,300945,p1dh73qts4t,p1dh73qts4t,You,beaver,29379,"On one boat there is <b>1 person</b> and the other boat there is <b>10 pigs</b>.
                 Will <b>You</b> save...",2,main_choice,23,pig,1,10,1 person,10 pigs,TRUE,B,A,10 pigs,Can't decide,1 person,"[""10 pigs"",""Can't decide"",""1 person""]",1 person vs 10 pigs,1 person,human,1,0,1,NA,NA,/Users/martincz/GitHub/COGS119/group_wi26_species_choices/analysis/../data/raw_data/p1dh73qts4t_1772139401019.csv
NA,NA,NA,NA,NA,html-keyboard-response,53,2.0.0,301456,p1dh73qts4t,p1dh73qts4t,You,beaver,null,"<div style=""font-size:40px; opacity:0.6;"">+</div>",null,NA,NA,NA,NA,NA,NA,NA,NA,NA,NA,NA,NA,NA,NA,NA,NA,NA,NA,NA,NA,iti,NA,/Users/martincz/GitHub/COGS119/group_wi26_species_choices/analysis/../data/raw_data/p1dh73qts4t_1772139401019.csv
NA,NA,NA,NA,NA,html-button-response,54,2.0.0,304720,p1dh73qts4t,p1dh73qts4t,You,beaver,3262,"On one boat there is <b>1 person</b> and the other boat there is <b>10 dogs</b>.
                 Will <b>You</b> save...",2,main_choice,24,dog,1,10,1 person,10 dogs,FALSE,A,B,1 person,Can't decide,10 dogs,"[""1 person"",""Can't decide"",""10 dogs""]",1 person vs 10 dogs,10 dogs,animal,0,1,0,NA,NA,/Users/martincz/GitHub/COGS119/group_wi26_species_choices/analysis/../data/raw_data/p1dh73qts4t_1772139401019.csv
NA,NA,NA,NA,NA,html-keyboard-response,55,2.0.0,305224,p1dh73qts4t,p1dh73qts4t,You,beaver,null,"<div style=""font-size:40px; opacity:0.6;"">+</div>",null,NA,NA,NA,NA,NA,NA,NA,NA,NA,NA,NA,NA,NA,NA,NA,NA,NA,NA,NA,NA,iti,NA,/Users/martincz/GitHub/COGS119/group_wi26_species_choices/analysis/../data/raw_data/p1dh73qts4t_1772139401019.csv
NA,NA,NA,NA,NA,html-button-response,56,2.0.0,308653,p1dh73qts4t,p1dh73qts4t,You,beaver,3426,"On one boat there is <b>1 person</b> and the other boat there is <b>100 clams</b>.
                 Will <b>You</b> save...",0,main_choice,25,clam,1,100,1 person,100 clams,FALSE,A,B,1 person,Can't decide,100 clams,"[""1 person"",""Can't decide"",""100 clams""]",1 person vs 100 clams,1 person,human,1,0,1,NA,NA,/Users/martincz/GitHub/COGS119/group_wi26_species_choices/analysis/../data/raw_data/p1dh73qts4t_1772139401019.csv
NA,NA,NA,NA,NA,html-keyboard-response,57,2.0.0,309164,p1dh73qts4t,p1dh73qts4t,You,beaver,null,"<div style=""font-size:40px; opacity:0.6;"">+</div>",null,NA,NA,NA,NA,NA,NA,NA,NA,NA,NA,NA,NA,NA,NA,NA,NA,NA,NA,NA,NA,iti,NA,/Users/martincz/GitHub/COGS119/group_wi26_species_choices/analysis/../data/raw_data/p1dh73qts4t_1772139401019.csv
NA,NA,NA,NA,NA,html-button-response,58,2.0.0,333640,p1dh73qts4t,p1dh73qts4t,You,beaver,24475,"On one boat there is <b>10 people</b> and the other boat there is <b>100 pigs</b>.
                 Will <b>You</b> save...",0,main_choice,26,pig,10,100,10 people,100 pigs,TRUE,B,A,100 pigs,Can't decide,10 people,"[""100 pigs"",""Can't decide"",""10 people""]",10 people vs 100 pigs,100 pigs,animal,0,1,0,NA,NA,/Users/martincz/GitHub/COGS119/group_wi26_species_choices/analysis/../data/raw_data/p1dh73qts4t_1772139401019.csv
NA,NA,NA,NA,NA,html-keyboard-response,59,2.0.0,334154,p1dh73qts4t,p1dh73qts4t,You,beaver,null,"<div style=""font-size:40px; opacity:0.6;"">+</div>",null,NA,NA,NA,NA,NA,NA,NA,NA,NA,NA,NA,NA,NA,NA,NA,NA,NA,NA,NA,NA,iti,NA,/Users/martincz/GitHub/COGS119/group_wi26_species_choices/analysis/../data/raw_data/p1dh73qts4t_1772139401019.csv
NA,NA,NA,NA,NA,html-button-response,60,2.0.0,362481,p1dh73qts4t,p1dh73qts4t,You,beaver,28326,"On one boat there is <b>1 person</b> and the other boat there is <b>1 dog</b>.
                 Will <b>You</b> save...",2,main_choice,27,dog,1,1,1 person,1 dog,FALSE,A,B,1 person,Can't decide,1 dog,"[""1 person"",""Can't decide"",""1 dog""]",1 person vs 1 dog,1 dog,animal,0,1,0,NA,NA,/Users/martincz/GitHub/COGS119/group_wi26_species_choices/analysis/../data/raw_data/p1dh73qts4t_1772139401019.csv
NA,NA,NA,NA,NA,html-keyboard-response,61,2.0.0,362992,p1dh73qts4t,p1dh73qts4t,You,beaver,null,"<div style=""font-size:40px; opacity:0.6;"">+</div>",null,NA,NA,NA,NA,NA,NA,NA,NA,NA,NA,NA,NA,NA,NA,NA,NA,NA,NA,NA,NA,iti,NA,/Users/martincz/GitHub/COGS119/group_wi26_species_choices/analysis/../data/raw_data/p1dh73qts4t_1772139401019.csv
NA,NA,NA,NA,NA,html-button-response,62,2.0.0,365357,p1dh73qts4t,p1dh73qts4t,You,beaver,2361,"On one boat there is <b>1 person</b> and the other boat there is <b>1 pigeon</b>.
                 Will <b>You</b> save...",0,main_choice,28,pigeon,1,1,1 person,1 pigeon,FALSE,A,B,1 person,Can't decide,1 pigeon,"[""1 person"",""Can't decide"",""1 pigeon""]",1 person vs 1 pigeon,1 person,human,1,0,1,NA,NA,/Users/martincz/GitHub/COGS119/group_wi26_species_choices/analysis/../data/raw_data/p1dh73qts4t_1772139401019.csv
NA,NA,NA,NA,NA,html-keyboard-response,63,2.0.0,365862,p1dh73qts4t,p1dh73qts4t,You,beaver,null,"<div style=""font-size:40px; opacity:0.6;"">+</div>",null,NA,NA,NA,NA,NA,NA,NA,NA,NA,NA,NA,NA,NA,NA,NA,NA,NA,NA,NA,NA,iti,NA,/Users/martincz/GitHub/COGS119/group_wi26_species_choices/analysis/../data/raw_data/p1dh73qts4t_1772139401019.csv
NA,NA,NA,NA,NA,html-button-response,64,2.0.0,370417,p1dh73qts4t,p1dh73qts4t,You,beaver,4554,"On one boat there is <b>1 person</b> and the other boat there is <b>1 bunny</b>.
                 Will <b>You</b> save...",2,main_choice,29,bunny,1,1,1 person,1 bunny,TRUE,B,A,1 bunny,Can't decide,1 person,"[""1 bunny"",""Can't decide"",""1 person""]",1 person vs 1 bunny,1 person,human,1,0,1,NA,NA,/Users/martincz/GitHub/COGS119/group_wi26_species_choices/analysis/../data/raw_data/p1dh73qts4t_1772139401019.csv
NA,NA,NA,NA,NA,html-keyboard-response,65,2.0.0,370934,p1dh73qts4t,p1dh73qts4t,You,beaver,null,"<div style=""font-size:40px; opacity:0.6;"">+</div>",null,NA,NA,NA,NA,NA,NA,NA,NA,NA,NA,NA,NA,NA,NA,NA,NA,NA,NA,NA,NA,iti,NA,/Users/martincz/GitHub/COGS119/group_wi26_species_choices/analysis/../data/raw_data/p1dh73qts4t_1772139401019.csv
NA,NA,NA,NA,NA,html-button-response,66,2.0.0,373094,p1dh73qts4t,p1dh73qts4t,You,beaver,2157,"On one boat there is <b>100 people</b> and the other boat there is <b>10 pigs</b>.
                 Will <b>You</b> save...",2,main_choice,30,pig,100,10,100 people,10 pigs,TRUE,B,A,10 pigs,Can't decide,100 people,"[""10 pigs"",""Can't decide"",""100 people""]",100 people vs 10 pigs,100 people,human,1,0,1,NA,NA,/Users/martincz/GitHub/COGS119/group_wi26_species_choices/analysis/../data/raw_data/p1dh73qts4t_1772139401019.csv
NA,NA,NA,NA,NA,html-keyboard-response,67,2.0.0,373595,p1dh73qts4t,p1dh73qts4t,You,beaver,null,"<div style=""font-size:40px; opacity:0.6;"">+</div>",null,NA,NA,NA,NA,NA,NA,NA,NA,NA,NA,NA,NA,NA,NA,NA,NA,NA,NA,NA,NA,iti,NA,/Users/martincz/GitHub/COGS119/group_wi26_species_choices/analysis/../data/raw_data/p1dh73qts4t_1772139401019.csv
NA,NA,NA,NA,NA,html-button-response,68,2.0.0,375459,p1dh73qts4t,p1dh73qts4t,You,beaver,1861,"On one boat there is <b>100 people</b> and the other boat there is <b>1 pigeon</b>.
                 Will <b>You</b> save...",0,main_choice,31,pigeon,100,1,100 people,1 pigeon,FALSE,A,B,100 people,Can't decide,1 pigeon,"[""100 people"",""Can't decide"",""1 pigeon""]",100 people vs 1 pigeon,100 people,human,1,0,1,NA,NA,/Users/martincz/GitHub/COGS119/group_wi26_species_choices/analysis/../data/raw_data/p1dh73qts4t_1772139401019.csv
NA,NA,NA,NA,NA,html-keyboard-response,69,2.0.0,375962,p1dh73qts4t,p1dh73qts4t,You,beaver,null,"<div style=""font-size:40px; opacity:0.6;"">+</div>",null,NA,NA,NA,NA,NA,NA,NA,NA,NA,NA,NA,NA,NA,NA,NA,NA,NA,NA,NA,NA,iti,NA,/Users/martincz/GitHub/COGS119/group_wi26_species_choices/analysis/../data/raw_data/p1dh73qts4t_1772139401019.csv
NA,NA,NA,NA,NA,html-button-response,70,2.0.0,377351,p1dh73qts4t,p1dh73qts4t,You,beaver,1387,"On one boat there is <b>100 people</b> and the other boat there is <b>1 clam</b>.
                 Will <b>You</b> save...",0,main_choice,32,clam,100,1,100 people,1 clam,FALSE,A,B,100 people,Can't decide,1 clam,"[""100 people"",""Can't decide"",""1 clam""]",100 people vs 1 clam,100 people,human,1,0,1,NA,NA,/Users/martincz/GitHub/COGS119/group_wi26_species_choices/analysis/../data/raw_data/p1dh73qts4t_1772139401019.csv
NA,NA,NA,NA,NA,html-keyboard-response,71,2.0.0,377859,p1dh73qts4t,p1dh73qts4t,You,beaver,null,"<div style=""font-size:40px; opacity:0.6;"">+</div>",null,NA,NA,NA,NA,NA,NA,NA,NA,NA,NA,NA,NA,NA,NA,NA,NA,NA,NA,NA,NA,iti,NA,/Users/martincz/GitHub/COGS119/group_wi26_species_choices/analysis/../data/raw_data/p1dh73qts4t_1772139401019.csv
NA,NA,NA,NA,NA,html-button-response,72,2.0.0,379850,p1dh73qts4t,p1dh73qts4t,You,beaver,1987,"On one boat there is <b>1 person</b> and the other boat there is <b>100 bunnies</b>.
                 Will <b>You</b> save...",0,main_choice,33,bunny,1,100,1 person,100 bunnies,TRUE,B,A,100 bunnies,Can't decide,1 person,"[""100 bunnies"",""Can't decide"",""1 person""]",1 person vs 100 bunnies,100 bunnies,animal,0,1,0,NA,NA,/Users/martincz/GitHub/COGS119/group_wi26_species_choices/analysis/../data/raw_data/p1dh73qts4t_1772139401019.csv
NA,NA,NA,NA,NA,html-keyboard-response,73,2.0.0,380359,p1dh73qts4t,p1dh73qts4t,You,beaver,null,"<div style=""font-size:40px; opacity:0.6;"">+</div>",null,NA,NA,NA,NA,NA,NA,NA,NA,NA,NA,NA,NA,NA,NA,NA,NA,NA,NA,NA,NA,iti,NA,/Users/martincz/GitHub/COGS119/group_wi26_species_choices/analysis/../data/raw_data/p1dh73qts4t_1772139401019.csv
NA,NA,NA,NA,NA,html-button-response,74,2.0.0,386104,p1dh73qts4t,p1dh73qts4t,You,beaver,5743,"On one boat there is <b>1 person</b> and the other boat there is <b>1 pig</b>.
                 Will <b>You</b> save...",0,main_choice,34,pig,1,1,1 person,1 pig,FALSE,A,B,1 person,Can't decide,1 pig,"[""1 person"",""Can't decide"",""1 pig""]",1 person vs 1 pig,1 person,human,1,0,1,NA,NA,/Users/martincz/GitHub/COGS119/group_wi26_species_choices/analysis/../data/raw_data/p1dh73qts4t_1772139401019.csv
NA,NA,NA,NA,NA,html-keyboard-response,75,2.0.0,386619,p1dh73qts4t,p1dh73qts4t,You,beaver,null,"<div style=""font-size:40px; opacity:0.6;"">+</div>",null,NA,NA,NA,NA,NA,NA,NA,NA,NA,NA,NA,NA,NA,NA,NA,NA,NA,NA,NA,NA,iti,NA,/Users/martincz/GitHub/COGS119/group_wi26_species_choices/analysis/../data/raw_data/p1dh73qts4t_1772139401019.csv
NA,NA,NA,NA,NA,html-button-response,76,2.0.0,389958,p1dh73qts4t,p1dh73qts4t,You,beaver,3338,"On one boat there is <b>10 people</b> and the other boat there is <b>100 pigeons</b>.
                 Will <b>You</b> save...",0,main_choice,35,pigeon,10,100,10 people,100 pigeons,TRUE,B,A,100 pigeons,Can't decide,10 people,"[""100 pigeons"",""Can't decide"",""10 people""]",10 people vs 100 pigeons,100 pigeons,animal,0,1,0,NA,NA,/Users/martincz/GitHub/COGS119/group_wi26_species_choices/analysis/../data/raw_data/p1dh73qts4t_1772139401019.csv
NA,NA,NA,NA,NA,html-keyboard-response,77,2.0.0,390463,p1dh73qts4t,p1dh73qts4t,You,beaver,null,"<div style=""font-size:40px; opacity:0.6;"">+</div>",null,NA,NA,NA,NA,NA,NA,NA,NA,NA,NA,NA,NA,NA,NA,NA,NA,NA,NA,NA,NA,iti,NA,/Users/martincz/GitHub/COGS119/group_wi26_species_choices/analysis/../data/raw_data/p1dh73qts4t_1772139401019.csv
NA,NA,NA,NA,NA,html-button-response,78,2.0.0,392355,p1dh73qts4t,p1dh73qts4t,You,beaver,1890,"On one boat there is <b>1 person</b> and the other boat there is <b>1 clam</b>.
                 Will <b>You</b> save...",2,main_choice,36,clam,1,1,1 person,1 clam,TRUE,B,A,1 clam,Can't decide,1 person,"[""1 clam"",""Can't decide"",""1 person""]",1 person vs 1 clam,1 person,human,1,0,1,NA,NA,/Users/martincz/GitHub/COGS119/group_wi26_species_choices/analysis/../data/raw_data/p1dh73qts4t_1772139401019.csv
NA,NA,NA,NA,NA,html-keyboard-response,79,2.0.0,392859,p1dh73qts4t,p1dh73qts4t,You,beaver,null,"<div style=""font-size:40px; opacity:0.6;"">+</div>",null,NA,NA,NA,NA,NA,NA,NA,NA,NA,NA,NA,NA,NA,NA,NA,NA,NA,NA,NA,NA,iti,NA,/Users/martincz/GitHub/COGS119/group_wi26_species_choices/analysis/../data/raw_data/p1dh73qts4t_1772139401019.csv
NA,NA,NA,NA,NA,html-button-response,80,2.0.0,395154,p1dh73qts4t,p1dh73qts4t,You,beaver,2292,"On one boat there is <b>1 person</b> and the other boat there is <b>100 dogs</b>.
                 Will <b>You</b> save...",2,main_choice,37,dog,1,100,1 person,100 dogs,FALSE,A,B,1 person,Can't decide,100 dogs,"[""1 person"",""Can't decide"",""100 dogs""]",1 person vs 100 dogs,100 dogs,animal,0,1,0,NA,NA,/Users/martincz/GitHub/COGS119/group_wi26_species_choices/analysis/../data/raw_data/p1dh73qts4t_1772139401019.csv
NA,NA,NA,NA,NA,html-keyboard-response,81,2.0.0,395661,p1dh73qts4t,p1dh73qts4t,You,beaver,null,"<div style=""font-size:40px; opacity:0.6;"">+</div>",null,NA,NA,NA,NA,NA,NA,NA,NA,NA,NA,NA,NA,NA,NA,NA,NA,NA,NA,NA,NA,iti,NA,/Users/martincz/GitHub/COGS119/group_wi26_species_choices/analysis/../data/raw_data/p1dh73qts4t_1772139401019.csv
NA,NA,NA,NA,NA,html-button-response,82,2.0.0,405020,p1dh73qts4t,p1dh73qts4t,You,beaver,9356,"On one boat there is <b>10 people</b> and the other boat there is <b>100 cats</b>.
                 Will <b>You</b> save...",2,main_choice,38,cat,10,100,10 people,100 cats,FALSE,A,B,10 people,Can't decide,100 cats,"[""10 people"",""Can't decide"",""100 cats""]",10 people vs 100 cats,100 cats,animal,0,1,0,NA,NA,/Users/martincz/GitHub/COGS119/group_wi26_species_choices/analysis/../data/raw_data/p1dh73qts4t_1772139401019.csv
NA,NA,NA,NA,NA,html-keyboard-response,83,2.0.0,405527,p1dh73qts4t,p1dh73qts4t,You,beaver,null,"<div style=""font-size:40px; opacity:0.6;"">+</div>",null,NA,NA,NA,NA,NA,NA,NA,NA,NA,NA,NA,NA,NA,NA,NA,NA,NA,NA,NA,NA,iti,NA,/Users/martincz/GitHub/COGS119/group_wi26_species_choices/analysis/../data/raw_data/p1dh73qts4t_1772139401019.csv
NA,NA,NA,NA,NA,html-button-response,84,2.0.0,425425,p1dh73qts4t,p1dh73qts4t,You,beaver,19897,"On one boat there is <b>100 people</b> and the other boat there is <b>10 cats</b>.
                 Will <b>You</b> save...",0,main_choice,39,cat,100,10,100 people,10 cats,FALSE,A,B,100 people,Can't decide,10 cats,"[""100 people"",""Can't decide"",""10 cats""]",100 people vs 10 cats,100 people,human,1,0,1,NA,NA,/Users/martincz/GitHub/COGS119/group_wi26_species_choices/analysis/../data/raw_data/p1dh73qts4t_1772139401019.csv
NA,NA,NA,NA,NA,html-keyboard-response,85,2.0.0,425927,p1dh73qts4t,p1dh73qts4t,You,beaver,null,"<div style=""font-size:40px; opacity:0.6;"">+</div>",null,NA,NA,NA,NA,NA,NA,NA,NA,NA,NA,NA,NA,NA,NA,NA,NA,NA,NA,NA,NA,iti,NA,/Users/martincz/GitHub/COGS119/group_wi26_species_choices/analysis/../data/raw_data/p1dh73qts4t_1772139401019.csv
NA,NA,NA,NA,NA,html-button-response,86,2.0.0,431790,p1dh73qts4t,p1dh73qts4t,You,beaver,5861,"On one boat there is <b>1 person</b> and the other boat there is <b>10 clams</b>.
                 Will <b>You</b> save...",0,main_choice,40,clam,1,10,1 person,10 clams,TRUE,B,A,10 clams,Can't decide,1 person,"[""10 clams"",""Can't decide"",""1 person""]",1 person vs 10 clams,10 clams,animal,0,1,0,NA,NA,/Users/martincz/GitHub/COGS119/group_wi26_species_choices/analysis/../data/raw_data/p1dh73qts4t_1772139401019.csv
NA,NA,NA,NA,NA,html-keyboard-response,87,2.0.0,432295,p1dh73qts4t,p1dh73qts4t,You,beaver,null,"<div style=""font-size:40px; opacity:0.6;"">+</div>",null,NA,NA,NA,NA,NA,NA,NA,NA,NA,NA,NA,NA,NA,NA,NA,NA,NA,NA,NA,NA,iti,NA,/Users/martincz/GitHub/COGS119/group_wi26_species_choices/analysis/../data/raw_data/p1dh73qts4t_1772139401019.csv
NA,NA,NA,NA,NA,html-button-response,88,2.0.0,443168,p1dh73qts4t,p1dh73qts4t,You,beaver,10871,"On one boat there is <b>10 people</b> and the other boat there is <b>1 clam</b>.
                 Will <b>You</b> save...",2,main_choice,41,clam,10,1,10 people,1 clam,TRUE,B,A,1 clam,Can't decide,10 people,"[""1 clam"",""Can't decide"",""10 people""]",10 people vs 1 clam,10 people,human,1,0,1,NA,NA,/Users/martincz/GitHub/COGS119/group_wi26_species_choices/analysis/../data/raw_data/p1dh73qts4t_1772139401019.csv
NA,NA,NA,NA,NA,html-keyboard-response,89,2.0.0,443684,p1dh73qts4t,p1dh73qts4t,You,beaver,null,"<div style=""font-size:40px; opacity:0.6;"">+</div>",null,NA,NA,NA,NA,NA,NA,NA,NA,NA,NA,NA,NA,NA,NA,NA,NA,NA,NA,NA,NA,iti,NA,/Users/martincz/GitHub/COGS119/group_wi26_species_choices/analysis/../data/raw_data/p1dh73qts4t_1772139401019.csv
NA,NA,NA,NA,NA,survey-likert,90,2.0.0,490879,p1dh73qts4t,p1dh73qts4t,You,beaver,47192,NA,"{""smart_person"":3,""smart_dog"":3,""smart_pig"":2}",NA,NA,NA,NA,NA,NA,NA,NA,NA,NA,NA,NA,NA,NA,NA,NA,NA,NA,NA,NA,capacity_smart,"[0,1,2]",/Users/martincz/GitHub/COGS119/group_wi26_species_choices/analysis/../data/raw_data/p1dh73qts4t_1772139401019.csv
NA,NA,NA,NA,NA,survey-likert,91,2.0.0,500211,p1dh73qts4t,p1dh73qts4t,You,beaver,9330,NA,"{""pain_person"":3,""pain_dog"":3,""pain_pig"":3}",NA,NA,NA,NA,NA,NA,NA,NA,NA,NA,NA,NA,NA,NA,NA,NA,NA,NA,NA,NA,capacity_pain,"[0,1,2]",/Users/martincz/GitHub/COGS119/group_wi26_species_choices/analysis/../data/raw_data/p1dh73qts4t_1772139401019.csv
NA,NA,NA,NA,NA,survey-likert,92,2.0.0,506536,p1dh73qts4t,p1dh73qts4t,You,beaver,6322,NA,"{""emotion_person"":3,""emotion_dog"":3,""emotion_pig"":3}",NA,NA,NA,NA,NA,NA,NA,NA,NA,NA,NA,NA,NA,NA,NA,NA,NA,NA,NA,NA,capacity_emotion,"[0,1,2]",/Users/martincz/GitHub/COGS119/group_wi26_species_choices/analysis/../data/raw_data/p1dh73qts4t_1772139401019.csv
NA,NA,NA,NA,NA,survey-text,93,2.0.0,535932,p1dh73qts4t,p1dh73qts4t,You,beaver,29378,NA,"{""Q0"":""How much do we value human lives compared to animal lives? Or where those values intersect?""}",NA,NA,NA,NA,NA,NA,NA,NA,NA,NA,NA,NA,NA,NA,NA,NA,NA,NA,NA,NA,hypothesis_check,NA,/Users/martincz/GitHub/COGS119/group_wi26_species_choices/analysis/../data/raw_data/p1dh73qts4t_1772139401019.csv
NA,NA,NA,NA,NA,survey-likert,94,2.0.0,540881,p1dh73qts4t,p1dh73qts4t,You,beaver,4945,NA,"{""Q0"":4}",NA,NA,NA,NA,NA,NA,NA,NA,NA,NA,NA,NA,NA,NA,NA,NA,NA,NA,NA,NA,difficulty_rating,[0],/Users/martincz/GitHub/COGS119/group_wi26_species_choices/analysis/../data/raw_data/p1dh73qts4t_1772139401019.csv
NA,NA,NA,NA,NA,survey-text,95,2.0.0,544094,p1dh73qts4t,p1dh73qts4t,You,beaver,3202,NA,"{""Q0"":""No""}",NA,NA,NA,NA,NA,NA,NA,NA,NA,NA,NA,NA,NA,NA,NA,NA,NA,NA,NA,NA,technical_check,NA,/Users/martincz/GitHub/COGS119/group_wi26_species_choices/analysis/../data/raw_data/p1dh73qts4t_1772139401019.csv
NA,NA,NA,NA,NA,survey-multi-choice,96,2.0.0,571148,p1dh73qts4t,p1dh73qts4t,You,beaver,27050,NA,"{""age_bracket"":""18 to 24"",""gender"":""Female"",""english_proficiency"":""Native / near-native"",""pet_ownership"":""Yes"",""diet"":""Omnivore""}",NA,NA,NA,NA,NA,NA,NA,NA,NA,NA,NA,NA,NA,NA,NA,NA,NA,NA,NA,NA,demographics,"[0,1,2,3,4]",/Users/martincz/GitHub/COGS119/group_wi26_species_choices/analysis/../data/raw_data/p1dh73qts4t_1772139401019.csv
TRUE,FALSE,[],[],[],preload,0,2.0.0,4430,p1w5ffoodro,p1w5ffoodro,You,goose,NA,NA,NA,NA,NA,NA,NA,NA,NA,NA,NA,NA,NA,NA,NA,NA,NA,NA,NA,NA,NA,NA,NA,NA,NA,/Users/martincz/GitHub/COGS119/group_wi26_species_choices/analysis/../data/raw_data/p1w5ffoodro_1772141009154.csv
NA,NA,NA,NA,NA,html-keyboard-response,1,2.0.0,8803,p1w5ffoodro,p1w5ffoodro,You,goose,4367,Welcome to the experiment. Press any key to begin.,NA,NA,NA,NA,NA,NA,NA,NA,NA,NA,NA,NA,NA,NA,NA,NA,NA,NA,NA,NA,NA,NA,NA,/Users/martincz/GitHub/COGS119/group_wi26_species_choices/analysis/../data/raw_data/p1w5ffoodro_1772141009154.csv
NA,NA,NA,NA,NA,survey-text,2,2.0.0,10583,p1w5ffoodro,p1w5ffoodro,You,goose,1771,NA,"{""participant_id"":""goose""}",NA,NA,NA,NA,NA,NA,NA,NA,NA,NA,NA,NA,NA,NA,NA,NA,NA,NA,NA,NA,NA,NA,/Users/martincz/GitHub/COGS119/group_wi26_species_choices/analysis/../data/raw_data/p1w5ffoodro_1772141009154.csv
TRUE,NA,NA,NA,NA,fullscreen,3,2.0.0,16531,p1w5ffoodro,p1w5ffoodro,You,goose,4945,NA,NA,NA,NA,NA,NA,NA,NA,NA,NA,NA,NA,NA,NA,NA,NA,NA,NA,NA,NA,NA,NA,NA,NA,/Users/martincz/GitHub/COGS119/group_wi26_species_choices/analysis/../data/raw_data/p1w5ffoodro_1772141009154.csv
NA,NA,NA,NA,NA,html-keyboard-response,4,2.0.0,23379,p1w5ffoodro,p1w5ffoodro,You,goose,6846,"<p>You will be asked you some moral questions in which you have to make
                choices. These questions can be hard to decide. There is no right or wrong
                answer - choose whatever you personally think is right. Please
                carefully consider each question.</p>
                <p>Press any key to begin.</p>",Enter,NA,NA,NA,NA,NA,NA,NA,NA,NA,NA,NA,NA,NA,NA,NA,NA,NA,NA,NA,NA,NA,NA,/Users/martincz/GitHub/COGS119/group_wi26_species_choices/analysis/../data/raw_data/p1w5ffoodro_1772141009154.csv
NA,NA,NA,NA,NA,html-keyboard-response,5,2.0.0,39513,p1w5ffoodro,p1w5ffoodro,You,goose,16127,"
      <p>
        Imagine a situation involving two boats, one with humans and one with animals. Both of these boats are sinking.
        Unfortunately, the species on either of these boats are unable to swim. However, You can
        choose one boat to save. Once You chooses a boat, the people or animals on that boat will
        be safe, but the people or animals on the other boat will not survive.
      </p>

      <div style=""display: flex; justify-content: center; align-items: center; gap: 40px; margin-top: 30px;"">
        <img src=""stimuli/boat.png"" style=""width:150px;"">
        <img src=""stimuli/cant decide.png"" style=""width:150px;"">
        <img src=""stimuli/boat.png"" style=""width:150px;"">
      </div>
",Enter,NA,NA,NA,NA,NA,NA,NA,NA,NA,NA,NA,NA,NA,NA,NA,NA,NA,NA,NA,NA,NA,NA,/Users/martincz/GitHub/COGS119/group_wi26_species_choices/analysis/../data/raw_data/p1w5ffoodro_1772141009154.csv
NA,NA,NA,NA,NA,html-button-response,6,2.0.0,44551,p1w5ffoodro,p1w5ffoodro,You,goose,5030,"On one boat there is <b>1 person</b> and the other boat there is <b>10 cats</b>.
                 Will <b>You</b> save...",2,main_choice,0,cat,1,10,1 person,10 cats,FALSE,A,B,1 person,Can't decide,10 cats,"[""1 person"",""Can't decide"",""10 cats""]",1 person vs 10 cats,10 cats,animal,0,1,0,NA,NA,/Users/martincz/GitHub/COGS119/group_wi26_species_choices/analysis/../data/raw_data/p1w5ffoodro_1772141009154.csv
NA,NA,NA,NA,NA,html-keyboard-response,7,2.0.0,45055,p1w5ffoodro,p1w5ffoodro,You,goose,null,"<div style=""font-size:40px; opacity:0.6;"">+</div>",null,NA,NA,NA,NA,NA,NA,NA,NA,NA,NA,NA,NA,NA,NA,NA,NA,NA,NA,NA,NA,iti,NA,/Users/martincz/GitHub/COGS119/group_wi26_species_choices/analysis/../data/raw_data/p1w5ffoodro_1772141009154.csv
NA,NA,NA,NA,NA,html-button-response,8,2.0.0,47497,p1w5ffoodro,p1w5ffoodro,You,goose,2439,"On one boat there is <b>10 people</b> and the other boat there is <b>100 pigs</b>.
                 Will <b>You</b> save...",0,main_choice,1,pig,10,100,10 people,100 pigs,FALSE,A,B,10 people,Can't decide,100 pigs,"[""10 people"",""Can't decide"",""100 pigs""]",10 people vs 100 pigs,10 people,human,1,0,1,NA,NA,/Users/martincz/GitHub/COGS119/group_wi26_species_choices/analysis/../data/raw_data/p1w5ffoodro_1772141009154.csv
NA,NA,NA,NA,NA,html-keyboard-response,9,2.0.0,47998,p1w5ffoodro,p1w5ffoodro,You,goose,null,"<div style=""font-size:40px; opacity:0.6;"">+</div>",null,NA,NA,NA,NA,NA,NA,NA,NA,NA,NA,NA,NA,NA,NA,NA,NA,NA,NA,NA,NA,iti,NA,/Users/martincz/GitHub/COGS119/group_wi26_species_choices/analysis/../data/raw_data/p1w5ffoodro_1772141009154.csv
NA,NA,NA,NA,NA,html-button-response,10,2.0.0,49131,p1w5ffoodro,p1w5ffoodro,You,goose,1130,"On one boat there is <b>1 person</b> and the other boat there is <b>1 pig</b>.
                 Will <b>You</b> save...",2,main_choice,2,pig,1,1,1 person,1 pig,TRUE,B,A,1 pig,Can't decide,1 person,"[""1 pig"",""Can't decide"",""1 person""]",1 person vs 1 pig,1 person,human,1,0,1,NA,NA,/Users/martincz/GitHub/COGS119/group_wi26_species_choices/analysis/../data/raw_data/p1w5ffoodro_1772141009154.csv
NA,NA,NA,NA,NA,html-keyboard-response,11,2.0.0,49635,p1w5ffoodro,p1w5ffoodro,You,goose,null,"<div style=""font-size:40px; opacity:0.6;"">+</div>",null,NA,NA,NA,NA,NA,NA,NA,NA,NA,NA,NA,NA,NA,NA,NA,NA,NA,NA,NA,NA,iti,NA,/Users/martincz/GitHub/COGS119/group_wi26_species_choices/analysis/../data/raw_data/p1w5ffoodro_1772141009154.csv
NA,NA,NA,NA,NA,html-button-response,12,2.0.0,52430,p1w5ffoodro,p1w5ffoodro,You,goose,2793,"On one boat there is <b>100 people</b> and the other boat there is <b>1 dog</b>.
                 Will <b>You</b> save...",2,main_choice,3,dog,100,1,100 people,1 dog,TRUE,B,A,1 dog,Can't decide,100 people,"[""1 dog"",""Can't decide"",""100 people""]",100 people vs 1 dog,100 people,human,1,0,1,NA,NA,/Users/martincz/GitHub/COGS119/group_wi26_species_choices/analysis/../data/raw_data/p1w5ffoodro_1772141009154.csv
NA,NA,NA,NA,NA,html-keyboard-response,13,2.0.0,52933,p1w5ffoodro,p1w5ffoodro,You,goose,null,"<div style=""font-size:40px; opacity:0.6;"">+</div>",null,NA,NA,NA,NA,NA,NA,NA,NA,NA,NA,NA,NA,NA,NA,NA,NA,NA,NA,NA,NA,iti,NA,/Users/martincz/GitHub/COGS119/group_wi26_species_choices/analysis/../data/raw_data/p1w5ffoodro_1772141009154.csv
NA,NA,NA,NA,NA,html-button-response,14,2.0.0,54046,p1w5ffoodro,p1w5ffoodro,You,goose,1111,"On one boat there is <b>100 people</b> and the other boat there is <b>1 pig</b>.
                 Will <b>You</b> save...",0,main_choice,4,pig,100,1,100 people,1 pig,FALSE,A,B,100 people,Can't decide,1 pig,"[""100 people"",""Can't decide"",""1 pig""]",100 people vs 1 pig,100 people,human,1,0,1,NA,NA,/Users/martincz/GitHub/COGS119/group_wi26_species_choices/analysis/../data/raw_data/p1w5ffoodro_1772141009154.csv
NA,NA,NA,NA,NA,html-keyboard-response,15,2.0.0,54549,p1w5ffoodro,p1w5ffoodro,You,goose,null,"<div style=""font-size:40px; opacity:0.6;"">+</div>",null,NA,NA,NA,NA,NA,NA,NA,NA,NA,NA,NA,NA,NA,NA,NA,NA,NA,NA,NA,NA,iti,NA,/Users/martincz/GitHub/COGS119/group_wi26_species_choices/analysis/../data/raw_data/p1w5ffoodro_1772141009154.csv
NA,NA,NA,NA,NA,html-button-response,16,2.0.0,58915,p1w5ffoodro,p1w5ffoodro,You,goose,4362,"On one boat there is <b>1 person</b> and the other boat there is <b>1 cat</b>.
                 Will <b>You</b> save...",2,main_choice,5,cat,1,1,1 person,1 cat,FALSE,A,B,1 person,Can't decide,1 cat,"[""1 person"",""Can't decide"",""1 cat""]",1 person vs 1 cat,1 cat,animal,0,1,0,NA,NA,/Users/martincz/GitHub/COGS119/group_wi26_species_choices/analysis/../data/raw_data/p1w5ffoodro_1772141009154.csv
NA,NA,NA,NA,NA,html-keyboard-response,17,2.0.0,59419,p1w5ffoodro,p1w5ffoodro,You,goose,null,"<div style=""font-size:40px; opacity:0.6;"">+</div>",null,NA,NA,NA,NA,NA,NA,NA,NA,NA,NA,NA,NA,NA,NA,NA,NA,NA,NA,NA,NA,iti,NA,/Users/martincz/GitHub/COGS119/group_wi26_species_choices/analysis/../data/raw_data/p1w5ffoodro_1772141009154.csv
NA,NA,NA,NA,NA,html-button-response,18,2.0.0,61164,p1w5ffoodro,p1w5ffoodro,You,goose,1741,"On one boat there is <b>1 person</b> and the other boat there is <b>100 pigeons</b>.
                 Will <b>You</b> save...",2,main_choice,6,pigeon,1,100,1 person,100 pigeons,TRUE,B,A,100 pigeons,Can't decide,1 person,"[""100 pigeons"",""Can't decide"",""1 person""]",1 person vs 100 pigeons,1 person,human,1,0,1,NA,NA,/Users/martincz/GitHub/COGS119/group_wi26_species_choices/analysis/../data/raw_data/p1w5ffoodro_1772141009154.csv
NA,NA,NA,NA,NA,html-keyboard-response,19,2.0.0,61667,p1w5ffoodro,p1w5ffoodro,You,goose,null,"<div style=""font-size:40px; opacity:0.6;"">+</div>",null,NA,NA,NA,NA,NA,NA,NA,NA,NA,NA,NA,NA,NA,NA,NA,NA,NA,NA,NA,NA,iti,NA,/Users/martincz/GitHub/COGS119/group_wi26_species_choices/analysis/../data/raw_data/p1w5ffoodro_1772141009154.csv
NA,NA,NA,NA,NA,html-button-response,20,2.0.0,63513,p1w5ffoodro,p1w5ffoodro,You,goose,1844,"On one boat there is <b>1 person</b> and the other boat there is <b>100 clams</b>.
                 Will <b>You</b> save...",2,main_choice,7,clam,1,100,1 person,100 clams,TRUE,B,A,100 clams,Can't decide,1 person,"[""100 clams"",""Can't decide"",""1 person""]",1 person vs 100 clams,1 person,human,1,0,1,NA,NA,/Users/martincz/GitHub/COGS119/group_wi26_species_choices/analysis/../data/raw_data/p1w5ffoodro_1772141009154.csv
NA,NA,NA,NA,NA,html-keyboard-response,21,2.0.0,64016,p1w5ffoodro,p1w5ffoodro,You,goose,null,"<div style=""font-size:40px; opacity:0.6;"">+</div>",null,NA,NA,NA,NA,NA,NA,NA,NA,NA,NA,NA,NA,NA,NA,NA,NA,NA,NA,NA,NA,iti,NA,/Users/martincz/GitHub/COGS119/group_wi26_species_choices/analysis/../data/raw_data/p1w5ffoodro_1772141009154.csv
NA,NA,NA,NA,NA,html-button-response,22,2.0.0,65464,p1w5ffoodro,p1w5ffoodro,You,goose,1445,"On one boat there is <b>10 people</b> and the other boat there is <b>100 clams</b>.
                 Will <b>You</b> save...",2,main_choice,8,clam,10,100,10 people,100 clams,TRUE,B,A,100 clams,Can't decide,10 people,"[""100 clams"",""Can't decide"",""10 people""]",10 people vs 100 clams,10 people,human,1,0,1,NA,NA,/Users/martincz/GitHub/COGS119/group_wi26_species_choices/analysis/../data/raw_data/p1w5ffoodro_1772141009154.csv
NA,NA,NA,NA,NA,html-keyboard-response,23,2.0.0,65966,p1w5ffoodro,p1w5ffoodro,You,goose,null,"<div style=""font-size:40px; opacity:0.6;"">+</div>",null,NA,NA,NA,NA,NA,NA,NA,NA,NA,NA,NA,NA,NA,NA,NA,NA,NA,NA,NA,NA,iti,NA,/Users/martincz/GitHub/COGS119/group_wi26_species_choices/analysis/../data/raw_data/p1w5ffoodro_1772141009154.csv
NA,NA,NA,NA,NA,html-button-response,24,2.0.0,68814,p1w5ffoodro,p1w5ffoodro,You,goose,2845,"On one boat there is <b>1 person</b> and the other boat there is <b>1 dog</b>.
                 Will <b>You</b> save...",2,main_choice,9,dog,1,1,1 person,1 dog,FALSE,A,B,1 person,Can't decide,1 dog,"[""1 person"",""Can't decide"",""1 dog""]",1 person vs 1 dog,1 dog,animal,0,1,0,NA,NA,/Users/martincz/GitHub/COGS119/group_wi26_species_choices/analysis/../data/raw_data/p1w5ffoodro_1772141009154.csv
NA,NA,NA,NA,NA,html-keyboard-response,25,2.0.0,69317,p1w5ffoodro,p1w5ffoodro,You,goose,null,"<div style=""font-size:40px; opacity:0.6;"">+</div>",null,NA,NA,NA,NA,NA,NA,NA,NA,NA,NA,NA,NA,NA,NA,NA,NA,NA,NA,NA,NA,iti,NA,/Users/martincz/GitHub/COGS119/group_wi26_species_choices/analysis/../data/raw_data/p1w5ffoodro_1772141009154.csv
NA,NA,NA,NA,NA,html-button-response,26,2.0.0,71031,p1w5ffoodro,p1w5ffoodro,You,goose,1711,"On one boat there is <b>100 people</b> and the other boat there is <b>1 clam</b>.
                 Will <b>You</b> save...",0,main_choice,10,clam,100,1,100 people,1 clam,FALSE,A,B,100 people,Can't decide,1 clam,"[""100 people"",""Can't decide"",""1 clam""]",100 people vs 1 clam,100 people,human,1,0,1,NA,NA,/Users/martincz/GitHub/COGS119/group_wi26_species_choices/analysis/../data/raw_data/p1w5ffoodro_1772141009154.csv
NA,NA,NA,NA,NA,html-keyboard-response,27,2.0.0,71534,p1w5ffoodro,p1w5ffoodro,You,goose,null,"<div style=""font-size:40px; opacity:0.6;"">+</div>",null,NA,NA,NA,NA,NA,NA,NA,NA,NA,NA,NA,NA,NA,NA,NA,NA,NA,NA,NA,NA,iti,NA,/Users/martincz/GitHub/COGS119/group_wi26_species_choices/analysis/../data/raw_data/p1w5ffoodro_1772141009154.csv
NA,NA,NA,NA,NA,html-button-response,28,2.0.0,72814,p1w5ffoodro,p1w5ffoodro,You,goose,1277,"On one boat there is <b>10 people</b> and the other boat there is <b>1 bunny</b>.
                 Will <b>You</b> save...",0,main_choice,11,bunny,10,1,10 people,1 bunny,FALSE,A,B,10 people,Can't decide,1 bunny,"[""10 people"",""Can't decide"",""1 bunny""]",10 people vs 1 bunny,10 people,human,1,0,1,NA,NA,/Users/martincz/GitHub/COGS119/group_wi26_species_choices/analysis/../data/raw_data/p1w5ffoodro_1772141009154.csv
NA,NA,NA,NA,NA,html-keyboard-response,29,2.0.0,73316,p1w5ffoodro,p1w5ffoodro,You,goose,null,"<div style=""font-size:40px; opacity:0.6;"">+</div>",null,NA,NA,NA,NA,NA,NA,NA,NA,NA,NA,NA,NA,NA,NA,NA,NA,NA,NA,NA,NA,iti,NA,/Users/martincz/GitHub/COGS119/group_wi26_species_choices/analysis/../data/raw_data/p1w5ffoodro_1772141009154.csv
NA,NA,NA,NA,NA,html-button-response,30,2.0.0,74463,p1w5ffoodro,p1w5ffoodro,You,goose,1144,"On one boat there is <b>10 people</b> and the other boat there is <b>1 pigeon</b>.
                 Will <b>You</b> save...",0,main_choice,12,pigeon,10,1,10 people,1 pigeon,FALSE,A,B,10 people,Can't decide,1 pigeon,"[""10 people"",""Can't decide"",""1 pigeon""]",10 people vs 1 pigeon,10 people,human,1,0,1,NA,NA,/Users/martincz/GitHub/COGS119/group_wi26_species_choices/analysis/../data/raw_data/p1w5ffoodro_1772141009154.csv
NA,NA,NA,NA,NA,html-keyboard-response,31,2.0.0,74965,p1w5ffoodro,p1w5ffoodro,You,goose,null,"<div style=""font-size:40px; opacity:0.6;"">+</div>",null,NA,NA,NA,NA,NA,NA,NA,NA,NA,NA,NA,NA,NA,NA,NA,NA,NA,NA,NA,NA,iti,NA,/Users/martincz/GitHub/COGS119/group_wi26_species_choices/analysis/../data/raw_data/p1w5ffoodro_1772141009154.csv
NA,NA,NA,NA,NA,html-button-response,32,2.0.0,76465,p1w5ffoodro,p1w5ffoodro,You,goose,1498,"On one boat there is <b>100 people</b> and the other boat there is <b>1 bunny</b>.
                 Will <b>You</b> save...",0,main_choice,13,bunny,100,1,100 people,1 bunny,FALSE,A,B,100 people,Can't decide,1 bunny,"[""100 people"",""Can't decide"",""1 bunny""]",100 people vs 1 bunny,100 people,human,1,0,1,NA,NA,/Users/martincz/GitHub/COGS119/group_wi26_species_choices/analysis/../data/raw_data/p1w5ffoodro_1772141009154.csv
NA,NA,NA,NA,NA,html-keyboard-response,33,2.0.0,76968,p1w5ffoodro,p1w5ffoodro,You,goose,null,"<div style=""font-size:40px; opacity:0.6;"">+</div>",null,NA,NA,NA,NA,NA,NA,NA,NA,NA,NA,NA,NA,NA,NA,NA,NA,NA,NA,NA,NA,iti,NA,/Users/martincz/GitHub/COGS119/group_wi26_species_choices/analysis/../data/raw_data/p1w5ffoodro_1772141009154.csv
NA,NA,NA,NA,NA,html-button-response,34,2.0.0,81831,p1w5ffoodro,p1w5ffoodro,You,goose,4858,"On one boat there is <b>100 people</b> and the other boat there is <b>10 dogs</b>.
                 Will <b>You</b> save...",0,main_choice,14,dog,100,10,100 people,10 dogs,TRUE,B,A,10 dogs,Can't decide,100 people,"[""10 dogs"",""Can't decide"",""100 people""]",100 people vs 10 dogs,10 dogs,animal,0,1,0,NA,NA,/Users/martincz/GitHub/COGS119/group_wi26_species_choices/analysis/../data/raw_data/p1w5ffoodro_1772141009154.csv
NA,NA,NA,NA,NA,html-keyboard-response,35,2.0.0,82333,p1w5ffoodro,p1w5ffoodro,You,goose,null,"<div style=""font-size:40px; opacity:0.6;"">+</div>",null,NA,NA,NA,NA,NA,NA,NA,NA,NA,NA,NA,NA,NA,NA,NA,NA,NA,NA,NA,NA,iti,NA,/Users/martincz/GitHub/COGS119/group_wi26_species_choices/analysis/../data/raw_data/p1w5ffoodro_1772141009154.csv
NA,NA,NA,NA,NA,html-button-response,36,2.0.0,83898,p1w5ffoodro,p1w5ffoodro,You,goose,1561,"On one boat there is <b>1 person</b> and the other boat there is <b>10 pigs</b>.
                 Will <b>You</b> save...",0,main_choice,15,pig,1,10,1 person,10 pigs,FALSE,A,B,1 person,Can't decide,10 pigs,"[""1 person"",""Can't decide"",""10 pigs""]",1 person vs 10 pigs,1 person,human,1,0,1,NA,NA,/Users/martincz/GitHub/COGS119/group_wi26_species_choices/analysis/../data/raw_data/p1w5ffoodro_1772141009154.csv
NA,NA,NA,NA,NA,html-keyboard-response,37,2.0.0,84402,p1w5ffoodro,p1w5ffoodro,You,goose,null,"<div style=""font-size:40px; opacity:0.6;"">+</div>",null,NA,NA,NA,NA,NA,NA,NA,NA,NA,NA,NA,NA,NA,NA,NA,NA,NA,NA,NA,NA,iti,NA,/Users/martincz/GitHub/COGS119/group_wi26_species_choices/analysis/../data/raw_data/p1w5ffoodro_1772141009154.csv
NA,NA,NA,NA,NA,html-button-response,38,2.0.0,85329,p1w5ffoodro,p1w5ffoodro,You,goose,925,"On one boat there is <b>100 people</b> and the other boat there is <b>1 pigeon</b>.
                 Will <b>You</b> save...",2,main_choice,16,pigeon,100,1,100 people,1 pigeon,TRUE,B,A,1 pigeon,Can't decide,100 people,"[""1 pigeon"",""Can't decide"",""100 people""]",100 people vs 1 pigeon,100 people,human,1,0,1,NA,NA,/Users/martincz/GitHub/COGS119/group_wi26_species_choices/analysis/../data/raw_data/p1w5ffoodro_1772141009154.csv
NA,NA,NA,NA,NA,html-keyboard-response,39,2.0.0,85830,p1w5ffoodro,p1w5ffoodro,You,goose,null,"<div style=""font-size:40px; opacity:0.6;"">+</div>",null,NA,NA,NA,NA,NA,NA,NA,NA,NA,NA,NA,NA,NA,NA,NA,NA,NA,NA,NA,NA,iti,NA,/Users/martincz/GitHub/COGS119/group_wi26_species_choices/analysis/../data/raw_data/p1w5ffoodro_1772141009154.csv
NA,NA,NA,NA,NA,html-button-response,40,2.0.0,86647,p1w5ffoodro,p1w5ffoodro,You,goose,816,"On one boat there is <b>1 person</b> and the other boat there is <b>10 pigeons</b>.
                 Will <b>You</b> save...",2,main_choice,17,pigeon,1,10,1 person,10 pigeons,TRUE,B,A,10 pigeons,Can't decide,1 person,"[""10 pigeons"",""Can't decide"",""1 person""]",1 person vs 10 pigeons,1 person,human,1,0,1,NA,NA,/Users/martincz/GitHub/COGS119/group_wi26_species_choices/analysis/../data/raw_data/p1w5ffoodro_1772141009154.csv
NA,NA,NA,NA,NA,html-keyboard-response,41,2.0.0,87150,p1w5ffoodro,p1w5ffoodro,You,goose,null,"<div style=""font-size:40px; opacity:0.6;"">+</div>",null,NA,NA,NA,NA,NA,NA,NA,NA,NA,NA,NA,NA,NA,NA,NA,NA,NA,NA,NA,NA,iti,NA,/Users/martincz/GitHub/COGS119/group_wi26_species_choices/analysis/../data/raw_data/p1w5ffoodro_1772141009154.csv
