trial_type,trial_index,trial_number,time_elapsed,random_id,condition_name,participant_id,rt,stimulus,response,phase,species_key,human_n,species_n,optionA_label,optionB_label,swap,left_is,right_is,left_label,middle_label,right_label,choice_options,comparison_label,chosen_option,choice_kind,saved_human,saved_animal,human_chosen,task,question_order,file_name,smart_person,smart_dog,smart_pig,pain_person,pain_dog,pain_pig,emotion_person,emotion_dog,emotion_pig,hypothesis_check,difficulty_rating,age_bracket,gender,english_proficiency,pet_ownership,diet,participant_is_group_member
html-button-response,6,1,123845,p1c8o1pd8dr,You,lion,4127,"On one boat there is <b>10 people</b> and the other boat there is <b>100 cats</b>.
                 Will <b>You</b> save...",0,main_choice,cat,10,100,10 people,100 cats,FALSE,A,B,10 people,Can't decide,100 cats,"[""10 people"",""Can't decide"",""100 cats""]",10 people vs 100 cats,10 people,human,1,0,1,NA,NA,/Users/martincz/GitHub/COGS119/group_wi26_species_choices/analysis/../data/raw_data/p1c8o1pd8dr_1772490384489.csv,3,0,0,3,1,0,3,1,0,"morals
",1,18 to 24,Female,Native / near-native,Yes,Omnivore,FALSE
html-button-response,8,2,127245,p1c8o1pd8dr,You,lion,2897,"On one boat there is <b>100 people</b> and the other boat there is <b>1 clam</b>.
                 Will <b>You</b> save...",0,main_choice,clam,100,1,100 people,1 clam,FALSE,A,B,100 people,Can't decide,1 clam,"[""100 people"",""Can't decide"",""1 clam""]",100 people vs 1 clam,100 people,human,1,0,1,NA,NA,/Users/martincz/GitHub/COGS119/group_wi26_species_choices/analysis/../data/raw_data/p1c8o1pd8dr_1772490384489.csv,3,0,0,3,1,0,3,1,0,"morals
",1,18 to 24,Female,Native / near-native,Yes,Omnivore,FALSE
html-button-response,10,3,137231,p1c8o1pd8dr,You,lion,9482,"On one boat there is <b>100 people</b> and the other boat there is <b>1 dog</b>.
                 Will <b>You</b> save...",2,main_choice,dog,100,1,100 people,1 dog,TRUE,B,A,1 dog,Can't decide,100 people,"[""1 dog"",""Can't decide"",""100 people""]",100 people vs 1 dog,100 people,human,1,0,1,NA,NA,/Users/martincz/GitHub/COGS119/group_wi26_species_choices/analysis/../data/raw_data/p1c8o1pd8dr_1772490384489.csv,3,0,0,3,1,0,3,1,0,"morals
",1,18 to 24,Female,Native / near-native,Yes,Omnivore,FALSE
html-button-response,12,4,139764,p1c8o1pd8dr,You,lion,2030,"On one boat there is <b>1 person</b> and the other boat there is <b>100 pigs</b>.
                 Will <b>You</b> save...",0,main_choice,pig,1,100,1 person,100 pigs,FALSE,A,B,1 person,Can't decide,100 pigs,"[""1 person"",""Can't decide"",""100 pigs""]",1 person vs 100 pigs,1 person,human,1,0,1,NA,NA,/Users/martincz/GitHub/COGS119/group_wi26_species_choices/analysis/../data/raw_data/p1c8o1pd8dr_1772490384489.csv,3,0,0,3,1,0,3,1,0,"morals
",1,18 to 24,Female,Native / near-native,Yes,Omnivore,FALSE
html-button-response,14,5,141598,p1c8o1pd8dr,You,lion,1331,"On one boat there is <b>100 people</b> and the other boat there is <b>1 pig</b>.
                 Will <b>You</b> save...",2,main_choice,pig,100,1,100 people,1 pig,TRUE,B,A,1 pig,Can't decide,100 people,"[""1 pig"",""Can't decide"",""100 people""]",100 people vs 1 pig,100 people,human,1,0,1,NA,NA,/Users/martincz/GitHub/COGS119/group_wi26_species_choices/analysis/../data/raw_data/p1c8o1pd8dr_1772490384489.csv,3,0,0,3,1,0,3,1,0,"morals
",1,18 to 24,Female,Native / near-native,Yes,Omnivore,FALSE
html-button-response,16,6,143498,p1c8o1pd8dr,You,lion,1397,"On one boat there is <b>1 person</b> and the other boat there is <b>1 clam</b>.
                 Will <b>You</b> save...",0,main_choice,clam,1,1,1 person,1 clam,FALSE,A,B,1 person,Can't decide,1 clam,"[""1 person"",""Can't decide"",""1 clam""]",1 person vs 1 clam,1 person,human,1,0,1,NA,NA,/Users/martincz/GitHub/COGS119/group_wi26_species_choices/analysis/../data/raw_data/p1c8o1pd8dr_1772490384489.csv,3,0,0,3,1,0,3,1,0,"morals
",1,18 to 24,Female,Native / near-native,Yes,Omnivore,FALSE
html-button-response,18,7,146082,p1c8o1pd8dr,You,lion,2081,"On one boat there is <b>100 people</b> and the other boat there is <b>10 pigs</b>.
                 Will <b>You</b> save...",2,main_choice,pig,100,10,100 people,10 pigs,TRUE,B,A,10 pigs,Can't decide,100 people,"[""10 pigs"",""Can't decide"",""100 people""]",100 people vs 10 pigs,100 people,human,1,0,1,NA,NA,/Users/martincz/GitHub/COGS119/group_wi26_species_choices/analysis/../data/raw_data/p1c8o1pd8dr_1772490384489.csv,3,0,0,3,1,0,3,1,0,"morals
",1,18 to 24,Female,Native / near-native,Yes,Omnivore,FALSE
html-button-response,20,8,147781,p1c8o1pd8dr,You,lion,1197,"On one boat there is <b>100 people</b> and the other boat there is <b>10 bunnies</b>.
                 Will <b>You</b> save...",0,main_choice,bunny,100,10,100 people,10 bunnies,FALSE,A,B,100 people,Can't decide,10 bunnies,"[""100 people"",""Can't decide"",""10 bunnies""]",100 people vs 10 bunnies,100 people,human,1,0,1,NA,NA,/Users/martincz/GitHub/COGS119/group_wi26_species_choices/analysis/../data/raw_data/p1c8o1pd8dr_1772490384489.csv,3,0,0,3,1,0,3,1,0,"morals
",1,18 to 24,Female,Native / near-native,Yes,Omnivore,FALSE
html-button-response,22,9,149249,p1c8o1pd8dr,You,lion,964,"On one boat there is <b>100 people</b> and the other boat there is <b>10 dogs</b>.
                 Will <b>You</b> save...",0,main_choice,dog,100,10,100 people,10 dogs,FALSE,A,B,100 people,Can't decide,10 dogs,"[""100 people"",""Can't decide"",""10 dogs""]",100 people vs 10 dogs,100 people,human,1,0,1,NA,NA,/Users/martincz/GitHub/COGS119/group_wi26_species_choices/analysis/../data/raw_data/p1c8o1pd8dr_1772490384489.csv,3,0,0,3,1,0,3,1,0,"morals
",1,18 to 24,Female,Native / near-native,Yes,Omnivore,FALSE
html-button-response,24,10,150666,p1c8o1pd8dr,You,lion,914,"On one boat there is <b>10 people</b> and the other boat there is <b>100 clams</b>.
                 Will <b>You</b> save...",2,main_choice,clam,10,100,10 people,100 clams,TRUE,B,A,100 clams,Can't decide,10 people,"[""100 clams"",""Can't decide"",""10 people""]",10 people vs 100 clams,10 people,human,1,0,1,NA,NA,/Users/martincz/GitHub/COGS119/group_wi26_species_choices/analysis/../data/raw_data/p1c8o1pd8dr_1772490384489.csv,3,0,0,3,1,0,3,1,0,"morals
",1,18 to 24,Female,Native / near-native,Yes,Omnivore,FALSE
html-button-response,26,11,152050,p1c8o1pd8dr,You,lion,880,"On one boat there is <b>100 people</b> and the other boat there is <b>10 clams</b>.
                 Will <b>You</b> save...",2,main_choice,clam,100,10,100 people,10 clams,TRUE,B,A,10 clams,Can't decide,100 people,"[""10 clams"",""Can't decide"",""100 people""]",100 people vs 10 clams,100 people,human,1,0,1,NA,NA,/Users/martincz/GitHub/COGS119/group_wi26_species_choices/analysis/../data/raw_data/p1c8o1pd8dr_1772490384489.csv,3,0,0,3,1,0,3,1,0,"morals
",1,18 to 24,Female,Native / near-native,Yes,Omnivore,FALSE
html-button-response,28,12,153900,p1c8o1pd8dr,You,lion,1348,"On one boat there is <b>1 person</b> and the other boat there is <b>1 pigeon</b>.
                 Will <b>You</b> save...",0,main_choice,pigeon,1,1,1 person,1 pigeon,FALSE,A,B,1 person,Can't decide,1 pigeon,"[""1 person"",""Can't decide"",""1 pigeon""]",1 person vs 1 pigeon,1 person,human,1,0,1,NA,NA,/Users/martincz/GitHub/COGS119/group_wi26_species_choices/analysis/../data/raw_data/p1c8o1pd8dr_1772490384489.csv,3,0,0,3,1,0,3,1,0,"morals
",1,18 to 24,Female,Native / near-native,Yes,Omnivore,FALSE
html-button-response,30,13,155283,p1c8o1pd8dr,You,lion,880,"On one boat there is <b>1 person</b> and the other boat there is <b>1 pig</b>.
                 Will <b>You</b> save...",2,main_choice,pig,1,1,1 person,1 pig,TRUE,B,A,1 pig,Can't decide,1 person,"[""1 pig"",""Can't decide"",""1 person""]",1 person vs 1 pig,1 person,human,1,0,1,NA,NA,/Users/martincz/GitHub/COGS119/group_wi26_species_choices/analysis/../data/raw_data/p1c8o1pd8dr_1772490384489.csv,3,0,0,3,1,0,3,1,0,"morals
",1,18 to 24,Female,Native / near-native,Yes,Omnivore,FALSE
html-button-response,32,14,156667,p1c8o1pd8dr,You,lion,881,"On one boat there is <b>1 person</b> and the other boat there is <b>1 dog</b>.
                 Will <b>You</b> save...",2,main_choice,dog,1,1,1 person,1 dog,TRUE,B,A,1 dog,Can't decide,1 person,"[""1 dog"",""Can't decide"",""1 person""]",1 person vs 1 dog,1 person,human,1,0,1,NA,NA,/Users/martincz/GitHub/COGS119/group_wi26_species_choices/analysis/../data/raw_data/p1c8o1pd8dr_1772490384489.csv,3,0,0,3,1,0,3,1,0,"morals
",1,18 to 24,Female,Native / near-native,Yes,Omnivore,FALSE
html-button-response,34,15,158467,p1c8o1pd8dr,You,lion,1298,"On one boat there is <b>10 people</b> and the other boat there is <b>1 bunny</b>.
                 Will <b>You</b> save...",0,main_choice,bunny,10,1,10 people,1 bunny,FALSE,A,B,10 people,Can't decide,1 bunny,"[""10 people"",""Can't decide"",""1 bunny""]",10 people vs 1 bunny,10 people,human,1,0,1,NA,NA,/Users/martincz/GitHub/COGS119/group_wi26_species_choices/analysis/../data/raw_data/p1c8o1pd8dr_1772490384489.csv,3,0,0,3,1,0,3,1,0,"morals
",1,18 to 24,Female,Native / near-native,Yes,Omnivore,FALSE
html-button-response,36,16,160000,p1c8o1pd8dr,You,lion,1030,"On one boat there is <b>1 person</b> and the other boat there is <b>100 pigeons</b>.
                 Will <b>You</b> save...",0,main_choice,pigeon,1,100,1 person,100 pigeons,FALSE,A,B,1 person,Can't decide,100 pigeons,"[""1 person"",""Can't decide"",""100 pigeons""]",1 person vs 100 pigeons,1 person,human,1,0,1,NA,NA,/Users/martincz/GitHub/COGS119/group_wi26_species_choices/analysis/../data/raw_data/p1c8o1pd8dr_1772490384489.csv,3,0,0,3,1,0,3,1,0,"morals
",1,18 to 24,Female,Native / near-native,Yes,Omnivore,FALSE
html-button-response,38,17,161418,p1c8o1pd8dr,You,lion,916,"On one boat there is <b>1 person</b> and the other boat there is <b>100 clams</b>.
                 Will <b>You</b> save...",0,main_choice,clam,1,100,1 person,100 clams,FALSE,A,B,1 person,Can't decide,100 clams,"[""1 person"",""Can't decide"",""100 clams""]",1 person vs 100 clams,1 person,human,1,0,1,NA,NA,/Users/martincz/GitHub/COGS119/group_wi26_species_choices/analysis/../data/raw_data/p1c8o1pd8dr_1772490384489.csv,3,0,0,3,1,0,3,1,0,"morals
",1,18 to 24,Female,Native / near-native,Yes,Omnivore,FALSE
html-button-response,40,18,163035,p1c8o1pd8dr,You,lion,1113,"On one boat there is <b>1 person</b> and the other boat there is <b>10 pigeons</b>.
                 Will <b>You</b> save...",0,main_choice,pigeon,1,10,1 person,10 pigeons,FALSE,A,B,1 person,Can't decide,10 pigeons,"[""1 person"",""Can't decide"",""10 pigeons""]",1 person vs 10 pigeons,1 person,human,1,0,1,NA,NA,/Users/martincz/GitHub/COGS119/group_wi26_species_choices/analysis/../data/raw_data/p1c8o1pd8dr_1772490384489.csv,3,0,0,3,1,0,3,1,0,"morals
",1,18 to 24,Female,Native / near-native,Yes,Omnivore,FALSE
html-button-response,42,19,164318,p1c8o1pd8dr,You,lion,781,"On one boat there is <b>1 person</b> and the other boat there is <b>100 bunnies</b>.
                 Will <b>You</b> save...",0,main_choice,bunny,1,100,1 person,100 bunnies,FALSE,A,B,1 person,Can't decide,100 bunnies,"[""1 person"",""Can't decide"",""100 bunnies""]",1 person vs 100 bunnies,1 person,human,1,0,1,NA,NA,/Users/martincz/GitHub/COGS119/group_wi26_species_choices/analysis/../data/raw_data/p1c8o1pd8dr_1772490384489.csv,3,0,0,3,1,0,3,1,0,"morals
",1,18 to 24,Female,Native / near-native,Yes,Omnivore,FALSE
html-button-response,44,20,180304,p1c8o1pd8dr,You,lion,15484,"On one boat there is <b>10 people</b> and the other boat there is <b>1 pig</b>.
                 Will <b>You</b> save...",0,main_choice,pig,10,1,10 people,1 pig,FALSE,A,B,10 people,Can't decide,1 pig,"[""10 people"",""Can't decide"",""1 pig""]",10 people vs 1 pig,10 people,human,1,0,1,NA,NA,/Users/martincz/GitHub/COGS119/group_wi26_species_choices/analysis/../data/raw_data/p1c8o1pd8dr_1772490384489.csv,3,0,0,3,1,0,3,1,0,"morals
",1,18 to 24,Female,Native / near-native,Yes,Omnivore,FALSE
html-button-response,46,21,181756,p1c8o1pd8dr,You,lion,948,"On one boat there is <b>10 people</b> and the other boat there is <b>1 pigeon</b>.
                 Will <b>You</b> save...",2,main_choice,pigeon,10,1,10 people,1 pigeon,TRUE,B,A,1 pigeon,Can't decide,10 people,"[""1 pigeon"",""Can't decide"",""10 people""]",10 people vs 1 pigeon,10 people,human,1,0,1,NA,NA,/Users/martincz/GitHub/COGS119/group_wi26_species_choices/analysis/../data/raw_data/p1c8o1pd8dr_1772490384489.csv,3,0,0,3,1,0,3,1,0,"morals
",1,18 to 24,Female,Native / near-native,Yes,Omnivore,FALSE
html-button-response,48,22,183406,p1c8o1pd8dr,You,lion,1147,"On one boat there is <b>100 people</b> and the other boat there is <b>10 pigeons</b>.
                 Will <b>You</b> save...",0,main_choice,pigeon,100,10,100 people,10 pigeons,FALSE,A,B,100 people,Can't decide,10 pigeons,"[""100 people"",""Can't decide"",""10 pigeons""]",100 people vs 10 pigeons,100 people,human,1,0,1,NA,NA,/Users/martincz/GitHub/COGS119/group_wi26_species_choices/analysis/../data/raw_data/p1c8o1pd8dr_1772490384489.csv,3,0,0,3,1,0,3,1,0,"morals
",1,18 to 24,Female,Native / near-native,Yes,Omnivore,FALSE
html-button-response,50,23,184506,p1c8o1pd8dr,You,lion,597,"On one boat there is <b>100 people</b> and the other boat there is <b>1 pigeon</b>.
                 Will <b>You</b> save...",0,main_choice,pigeon,100,1,100 people,1 pigeon,FALSE,A,B,100 people,Can't decide,1 pigeon,"[""100 people"",""Can't decide"",""1 pigeon""]",100 people vs 1 pigeon,100 people,human,1,0,1,NA,NA,/Users/martincz/GitHub/COGS119/group_wi26_species_choices/analysis/../data/raw_data/p1c8o1pd8dr_1772490384489.csv,3,0,0,3,1,0,3,1,0,"morals
",1,18 to 24,Female,Native / near-native,Yes,Omnivore,FALSE
html-button-response,52,24,186023,p1c8o1pd8dr,You,lion,1014,"On one boat there is <b>10 people</b> and the other boat there is <b>100 bunnies</b>.
                 Will <b>You</b> save...",2,main_choice,bunny,10,100,10 people,100 bunnies,TRUE,B,A,100 bunnies,Can't decide,10 people,"[""100 bunnies"",""Can't decide"",""10 people""]",10 people vs 100 bunnies,10 people,human,1,0,1,NA,NA,/Users/martincz/GitHub/COGS119/group_wi26_species_choices/analysis/../data/raw_data/p1c8o1pd8dr_1772490384489.csv,3,0,0,3,1,0,3,1,0,"morals
",1,18 to 24,Female,Native / near-native,Yes,Omnivore,FALSE
html-button-response,54,25,187423,p1c8o1pd8dr,You,lion,897,"On one boat there is <b>10 people</b> and the other boat there is <b>1 cat</b>.
                 Will <b>You</b> save...",0,main_choice,cat,10,1,10 people,1 cat,FALSE,A,B,10 people,Can't decide,1 cat,"[""10 people"",""Can't decide"",""1 cat""]",10 people vs 1 cat,10 people,human,1,0,1,NA,NA,/Users/martincz/GitHub/COGS119/group_wi26_species_choices/analysis/../data/raw_data/p1c8o1pd8dr_1772490384489.csv,3,0,0,3,1,0,3,1,0,"morals
",1,18 to 24,Female,Native / near-native,Yes,Omnivore,FALSE
html-button-response,56,26,188707,p1c8o1pd8dr,You,lion,782,"On one boat there is <b>100 people</b> and the other boat there is <b>1 bunny</b>.
                 Will <b>You</b> save...",0,main_choice,bunny,100,1,100 people,1 bunny,FALSE,A,B,100 people,Can't decide,1 bunny,"[""100 people"",""Can't decide"",""1 bunny""]",100 people vs 1 bunny,100 people,human,1,0,1,NA,NA,/Users/martincz/GitHub/COGS119/group_wi26_species_choices/analysis/../data/raw_data/p1c8o1pd8dr_1772490384489.csv,3,0,0,3,1,0,3,1,0,"morals
",1,18 to 24,Female,Native / near-native,Yes,Omnivore,FALSE
html-button-response,58,27,190090,p1c8o1pd8dr,You,lion,880,"On one boat there is <b>1 person</b> and the other boat there is <b>10 pigs</b>.
                 Will <b>You</b> save...",2,main_choice,pig,1,10,1 person,10 pigs,TRUE,B,A,10 pigs,Can't decide,1 person,"[""10 pigs"",""Can't decide"",""1 person""]",1 person vs 10 pigs,1 person,human,1,0,1,NA,NA,/Users/martincz/GitHub/COGS119/group_wi26_species_choices/analysis/../data/raw_data/p1c8o1pd8dr_1772490384489.csv,3,0,0,3,1,0,3,1,0,"morals
",1,18 to 24,Female,Native / near-native,Yes,Omnivore,FALSE
html-button-response,60,28,191440,p1c8o1pd8dr,You,lion,848,"On one boat there is <b>1 person</b> and the other boat there is <b>1 bunny</b>.
                 Will <b>You</b> save...",0,main_choice,bunny,1,1,1 person,1 bunny,FALSE,A,B,1 person,Can't decide,1 bunny,"[""1 person"",""Can't decide"",""1 bunny""]",1 person vs 1 bunny,1 person,human,1,0,1,NA,NA,/Users/martincz/GitHub/COGS119/group_wi26_species_choices/analysis/../data/raw_data/p1c8o1pd8dr_1772490384489.csv,3,0,0,3,1,0,3,1,0,"morals
",1,18 to 24,Female,Native / near-native,Yes,Omnivore,FALSE
html-button-response,62,29,192691,p1c8o1pd8dr,You,lion,748,"On one boat there is <b>10 people</b> and the other boat there is <b>100 dogs</b>.
                 Will <b>You</b> save...",2,main_choice,dog,10,100,10 people,100 dogs,TRUE,B,A,100 dogs,Can't decide,10 people,"[""100 dogs"",""Can't decide"",""10 people""]",10 people vs 100 dogs,10 people,human,1,0,1,NA,NA,/Users/martincz/GitHub/COGS119/group_wi26_species_choices/analysis/../data/raw_data/p1c8o1pd8dr_1772490384489.csv,3,0,0,3,1,0,3,1,0,"morals
",1,18 to 24,Female,Native / near-native,Yes,Omnivore,FALSE
html-button-response,64,30,193874,p1c8o1pd8dr,You,lion,681,"On one boat there is <b>1 person</b> and the other boat there is <b>10 cats</b>.
                 Will <b>You</b> save...",0,main_choice,cat,1,10,1 person,10 cats,FALSE,A,B,1 person,Can't decide,10 cats,"[""1 person"",""Can't decide"",""10 cats""]",1 person vs 10 cats,1 person,human,1,0,1,NA,NA,/Users/martincz/GitHub/COGS119/group_wi26_species_choices/analysis/../data/raw_data/p1c8o1pd8dr_1772490384489.csv,3,0,0,3,1,0,3,1,0,"morals
",1,18 to 24,Female,Native / near-native,Yes,Omnivore,FALSE
html-button-response,66,31,195191,p1c8o1pd8dr,You,lion,814,"On one boat there is <b>1 person</b> and the other boat there is <b>10 clams</b>.
                 Will <b>You</b> save...",2,main_choice,clam,1,10,1 person,10 clams,TRUE,B,A,10 clams,Can't decide,1 person,"[""10 clams"",""Can't decide"",""1 person""]",1 person vs 10 clams,1 person,human,1,0,1,NA,NA,/Users/martincz/GitHub/COGS119/group_wi26_species_choices/analysis/../data/raw_data/p1c8o1pd8dr_1772490384489.csv,3,0,0,3,1,0,3,1,0,"morals
",1,18 to 24,Female,Native / near-native,Yes,Omnivore,FALSE
html-button-response,68,32,196742,p1c8o1pd8dr,You,lion,1047,"On one boat there is <b>100 people</b> and the other boat there is <b>10 cats</b>.
                 Will <b>You</b> save...",2,main_choice,cat,100,10,100 people,10 cats,TRUE,B,A,10 cats,Can't decide,100 people,"[""10 cats"",""Can't decide"",""100 people""]",100 people vs 10 cats,100 people,human,1,0,1,NA,NA,/Users/martincz/GitHub/COGS119/group_wi26_species_choices/analysis/../data/raw_data/p1c8o1pd8dr_1772490384489.csv,3,0,0,3,1,0,3,1,0,"morals
",1,18 to 24,Female,Native / near-native,Yes,Omnivore,FALSE
html-button-response,70,33,198108,p1c8o1pd8dr,You,lion,864,"On one boat there is <b>100 people</b> and the other boat there is <b>1 cat</b>.
                 Will <b>You</b> save...",0,main_choice,cat,100,1,100 people,1 cat,FALSE,A,B,100 people,Can't decide,1 cat,"[""100 people"",""Can't decide"",""1 cat""]",100 people vs 1 cat,100 people,human,1,0,1,NA,NA,/Users/martincz/GitHub/COGS119/group_wi26_species_choices/analysis/../data/raw_data/p1c8o1pd8dr_1772490384489.csv,3,0,0,3,1,0,3,1,0,"morals
",1,18 to 24,Female,Native / near-native,Yes,Omnivore,FALSE
html-button-response,72,34,199208,p1c8o1pd8dr,You,lion,597,"On one boat there is <b>10 people</b> and the other boat there is <b>100 pigeons</b>.
                 Will <b>You</b> save...",0,main_choice,pigeon,10,100,10 people,100 pigeons,FALSE,A,B,10 people,Can't decide,100 pigeons,"[""10 people"",""Can't decide"",""100 pigeons""]",10 people vs 100 pigeons,10 people,human,1,0,1,NA,NA,/Users/martincz/GitHub/COGS119/group_wi26_species_choices/analysis/../data/raw_data/p1c8o1pd8dr_1772490384489.csv,3,0,0,3,1,0,3,1,0,"morals
",1,18 to 24,Female,Native / near-native,Yes,Omnivore,FALSE
html-button-response,74,35,200742,p1c8o1pd8dr,You,lion,1031,"On one boat there is <b>1 person</b> and the other boat there is <b>1 cat</b>.
                 Will <b>You</b> save...",0,main_choice,cat,1,1,1 person,1 cat,FALSE,A,B,1 person,Can't decide,1 cat,"[""1 person"",""Can't decide"",""1 cat""]",1 person vs 1 cat,1 person,human,1,0,1,NA,NA,/Users/martincz/GitHub/COGS119/group_wi26_species_choices/analysis/../data/raw_data/p1c8o1pd8dr_1772490384489.csv,3,0,0,3,1,0,3,1,0,"morals
",1,18 to 24,Female,Native / near-native,Yes,Omnivore,FALSE
html-button-response,76,36,201842,p1c8o1pd8dr,You,lion,598,"On one boat there is <b>1 person</b> and the other boat there is <b>10 bunnies</b>.
                 Will <b>You</b> save...",0,main_choice,bunny,1,10,1 person,10 bunnies,FALSE,A,B,1 person,Can't decide,10 bunnies,"[""1 person"",""Can't decide"",""10 bunnies""]",1 person vs 10 bunnies,1 person,human,1,0,1,NA,NA,/Users/martincz/GitHub/COGS119/group_wi26_species_choices/analysis/../data/raw_data/p1c8o1pd8dr_1772490384489.csv,3,0,0,3,1,0,3,1,0,"morals
",1,18 to 24,Female,Native / near-native,Yes,Omnivore,FALSE
html-button-response,78,37,202892,p1c8o1pd8dr,You,lion,547,"On one boat there is <b>1 person</b> and the other boat there is <b>10 dogs</b>.
                 Will <b>You</b> save...",0,main_choice,dog,1,10,1 person,10 dogs,FALSE,A,B,1 person,Can't decide,10 dogs,"[""1 person"",""Can't decide"",""10 dogs""]",1 person vs 10 dogs,1 person,human,1,0,1,NA,NA,/Users/martincz/GitHub/COGS119/group_wi26_species_choices/analysis/../data/raw_data/p1c8o1pd8dr_1772490384489.csv,3,0,0,3,1,0,3,1,0,"morals
",1,18 to 24,Female,Native / near-native,Yes,Omnivore,FALSE
html-button-response,80,38,204276,p1c8o1pd8dr,You,lion,881,"On one boat there is <b>10 people</b> and the other boat there is <b>100 pigs</b>.
                 Will <b>You</b> save...",2,main_choice,pig,10,100,10 people,100 pigs,TRUE,B,A,100 pigs,Can't decide,10 people,"[""100 pigs"",""Can't decide"",""10 people""]",10 people vs 100 pigs,10 people,human,1,0,1,NA,NA,/Users/martincz/GitHub/COGS119/group_wi26_species_choices/analysis/../data/raw_data/p1c8o1pd8dr_1772490384489.csv,3,0,0,3,1,0,3,1,0,"morals
",1,18 to 24,Female,Native / near-native,Yes,Omnivore,FALSE
html-button-response,82,39,206627,p1c8o1pd8dr,You,lion,1848,"On one boat there is <b>1 person</b> and the other boat there is <b>100 cats</b>.
                 Will <b>You</b> save...",2,main_choice,cat,1,100,1 person,100 cats,FALSE,A,B,1 person,Can't decide,100 cats,"[""1 person"",""Can't decide"",""100 cats""]",1 person vs 100 cats,100 cats,animal,0,1,0,NA,NA,/Users/martincz/GitHub/COGS119/group_wi26_species_choices/analysis/../data/raw_data/p1c8o1pd8dr_1772490384489.csv,3,0,0,3,1,0,3,1,0,"morals
",1,18 to 24,Female,Native / near-native,Yes,Omnivore,FALSE
html-button-response,84,40,209093,p1c8o1pd8dr,You,lion,1964,"On one boat there is <b>1 person</b> and the other boat there is <b>100 dogs</b>.
                 Will <b>You</b> save...",2,main_choice,dog,1,100,1 person,100 dogs,FALSE,A,B,1 person,Can't decide,100 dogs,"[""1 person"",""Can't decide"",""100 dogs""]",1 person vs 100 dogs,100 dogs,animal,0,1,0,NA,NA,/Users/martincz/GitHub/COGS119/group_wi26_species_choices/analysis/../data/raw_data/p1c8o1pd8dr_1772490384489.csv,3,0,0,3,1,0,3,1,0,"morals
",1,18 to 24,Female,Native / near-native,Yes,Omnivore,FALSE
html-button-response,86,41,210661,p1c8o1pd8dr,You,lion,1064,"On one boat there is <b>10 people</b> and the other boat there is <b>1 dog</b>.
                 Will <b>You</b> save...",2,main_choice,dog,10,1,10 people,1 dog,TRUE,B,A,1 dog,Can't decide,10 people,"[""1 dog"",""Can't decide"",""10 people""]",10 people vs 1 dog,10 people,human,1,0,1,NA,NA,/Users/martincz/GitHub/COGS119/group_wi26_species_choices/analysis/../data/raw_data/p1c8o1pd8dr_1772490384489.csv,3,0,0,3,1,0,3,1,0,"morals
",1,18 to 24,Female,Native / near-native,Yes,Omnivore,FALSE
html-button-response,88,42,212043,p1c8o1pd8dr,You,lion,880,"On one boat there is <b>10 people</b> and the other boat there is <b>1 clam</b>.
                 Will <b>You</b> save...",0,main_choice,clam,10,1,10 people,1 clam,FALSE,A,B,10 people,Can't decide,1 clam,"[""10 people"",""Can't decide"",""1 clam""]",10 people vs 1 clam,10 people,human,1,0,1,NA,NA,/Users/martincz/GitHub/COGS119/group_wi26_species_choices/analysis/../data/raw_data/p1c8o1pd8dr_1772490384489.csv,3,0,0,3,1,0,3,1,0,"morals
",1,18 to 24,Female,Native / near-native,Yes,Omnivore,FALSE
html-button-response,6,1,72617,p1dh73qts4t,You,beaver,7137,"On one boat there is <b>10 people</b> and the other boat there is <b>1 bunny</b>.
                 Will <b>You</b> save...",0,main_choice,bunny,10,1,10 people,1 bunny,FALSE,A,B,10 people,Can't decide,1 bunny,"[""10 people"",""Can't decide"",""1 bunny""]",10 people vs 1 bunny,10 people,human,1,0,1,NA,NA,/Users/martincz/GitHub/COGS119/group_wi26_species_choices/analysis/../data/raw_data/p1dh73qts4t_1772139401019.csv,3,3,2,3,3,3,3,3,3,How much do we value human lives compared to animal lives? Or where those values intersect?,4,18 to 24,Female,Native / near-native,Yes,Omnivore,FALSE
html-button-response,8,2,97614,p1dh73qts4t,You,beaver,24487,"On one boat there is <b>100 people</b> and the other boat there is <b>10 dogs</b>.
                 Will <b>You</b> save...",2,main_choice,dog,100,10,100 people,10 dogs,TRUE,B,A,10 dogs,Can't decide,100 people,"[""10 dogs"",""Can't decide"",""100 people""]",100 people vs 10 dogs,100 people,human,1,0,1,NA,NA,/Users/martincz/GitHub/COGS119/group_wi26_species_choices/analysis/../data/raw_data/p1dh73qts4t_1772139401019.csv,3,3,2,3,3,3,3,3,3,How much do we value human lives compared to animal lives? Or where those values intersect?,4,18 to 24,Female,Native / near-native,Yes,Omnivore,FALSE
html-button-response,10,3,105998,p1dh73qts4t,You,beaver,7874,"On one boat there is <b>100 people</b> and the other boat there is <b>1 cat</b>.
                 Will <b>You</b> save...",1,main_choice,cat,100,1,100 people,1 cat,TRUE,B,A,1 cat,Can't decide,100 people,"[""1 cat"",""Can't decide"",""100 people""]",100 people vs 1 cat,Can't decide,neutral,0,0,0,NA,NA,/Users/martincz/GitHub/COGS119/group_wi26_species_choices/analysis/../data/raw_data/p1dh73qts4t_1772139401019.csv,3,3,2,3,3,3,3,3,3,How much do we value human lives compared to animal lives? Or where those values intersect?,4,18 to 24,Female,Native / near-native,Yes,Omnivore,FALSE
html-button-response,12,4,112297,p1dh73qts4t,You,beaver,5777,"On one boat there is <b>10 people</b> and the other boat there is <b>100 clams</b>.
                 Will <b>You</b> save...",0,main_choice,clam,10,100,10 people,100 clams,FALSE,A,B,10 people,Can't decide,100 clams,"[""10 people"",""Can't decide"",""100 clams""]",10 people vs 100 clams,10 people,human,1,0,1,NA,NA,/Users/martincz/GitHub/COGS119/group_wi26_species_choices/analysis/../data/raw_data/p1dh73qts4t_1772139401019.csv,3,3,2,3,3,3,3,3,3,How much do we value human lives compared to animal lives? Or where those values intersect?,4,18 to 24,Female,Native / near-native,Yes,Omnivore,FALSE
html-button-response,14,5,117361,p1dh73qts4t,You,beaver,4554,"On one boat there is <b>10 people</b> and the other boat there is <b>1 pig</b>.
                 Will <b>You</b> save...",0,main_choice,pig,10,1,10 people,1 pig,FALSE,A,B,10 people,Can't decide,1 pig,"[""10 people"",""Can't decide"",""1 pig""]",10 people vs 1 pig,10 people,human,1,0,1,NA,NA,/Users/martincz/GitHub/COGS119/group_wi26_species_choices/analysis/../data/raw_data/p1dh73qts4t_1772139401019.csv,3,3,2,3,3,3,3,3,3,How much do we value human lives compared to animal lives? Or where those values intersect?,4,18 to 24,Female,Native / near-native,Yes,Omnivore,FALSE
html-button-response,16,6,122037,p1dh73qts4t,You,beaver,4164,"On one boat there is <b>100 people</b> and the other boat there is <b>1 dog</b>.
                 Will <b>You</b> save...",0,main_choice,dog,100,1,100 people,1 dog,FALSE,A,B,100 people,Can't decide,1 dog,"[""100 people"",""Can't decide"",""1 dog""]",100 people vs 1 dog,100 people,human,1,0,1,NA,NA,/Users/martincz/GitHub/COGS119/group_wi26_species_choices/analysis/../data/raw_data/p1dh73qts4t_1772139401019.csv,3,3,2,3,3,3,3,3,3,How much do we value human lives compared to animal lives? Or where those values intersect?,4,18 to 24,Female,Native / near-native,Yes,Omnivore,FALSE
html-button-response,18,7,132925,p1dh73qts4t,You,beaver,10370,"On one boat there is <b>10 people</b> and the other boat there is <b>1 cat</b>.
                 Will <b>You</b> save...",0,main_choice,cat,10,1,10 people,1 cat,TRUE,B,A,1 cat,Can't decide,10 people,"[""1 cat"",""Can't decide"",""10 people""]",10 people vs 1 cat,1 cat,animal,0,1,0,NA,NA,/Users/martincz/GitHub/COGS119/group_wi26_species_choices/analysis/../data/raw_data/p1dh73qts4t_1772139401019.csv,3,3,2,3,3,3,3,3,3,How much do we value human lives compared to animal lives? Or where those values intersect?,4,18 to 24,Female,Native / near-native,Yes,Omnivore,FALSE
html-button-response,20,8,139319,p1dh73qts4t,You,beaver,5887,"On one boat there is <b>1 person</b> and the other boat there is <b>10 bunnies</b>.
                 Will <b>You</b> save...",2,main_choice,bunny,1,10,1 person,10 bunnies,FALSE,A,B,1 person,Can't decide,10 bunnies,"[""1 person"",""Can't decide"",""10 bunnies""]",1 person vs 10 bunnies,10 bunnies,animal,0,1,0,NA,NA,/Users/martincz/GitHub/COGS119/group_wi26_species_choices/analysis/../data/raw_data/p1dh73qts4t_1772139401019.csv,3,3,2,3,3,3,3,3,3,How much do we value human lives compared to animal lives? Or where those values intersect?,4,18 to 24,Female,Native / near-native,Yes,Omnivore,FALSE
html-button-response,22,9,142418,p1dh73qts4t,You,beaver,2587,"On one boat there is <b>10 people</b> and the other boat there is <b>1 pigeon</b>.
                 Will <b>You</b> save...",2,main_choice,pigeon,10,1,10 people,1 pigeon,TRUE,B,A,1 pigeon,Can't decide,10 people,"[""1 pigeon"",""Can't decide"",""10 people""]",10 people vs 1 pigeon,10 people,human,1,0,1,NA,NA,/Users/martincz/GitHub/COGS119/group_wi26_species_choices/analysis/../data/raw_data/p1dh73qts4t_1772139401019.csv,3,3,2,3,3,3,3,3,3,How much do we value human lives compared to animal lives? Or where those values intersect?,4,18 to 24,Female,Native / near-native,Yes,Omnivore,FALSE
html-button-response,24,10,146994,p1dh73qts4t,You,beaver,4068,"On one boat there is <b>100 people</b> and the other boat there is <b>10 bunnies</b>.
                 Will <b>You</b> save...",2,main_choice,bunny,100,10,100 people,10 bunnies,TRUE,B,A,10 bunnies,Can't decide,100 people,"[""10 bunnies"",""Can't decide"",""100 people""]",100 people vs 10 bunnies,100 people,human,1,0,1,NA,NA,/Users/martincz/GitHub/COGS119/group_wi26_species_choices/analysis/../data/raw_data/p1dh73qts4t_1772139401019.csv,3,3,2,3,3,3,3,3,3,How much do we value human lives compared to animal lives? Or where those values intersect?,4,18 to 24,Female,Native / near-native,Yes,Omnivore,FALSE
html-button-response,26,11,153833,p1dh73qts4t,You,beaver,6321,"On one boat there is <b>1 person</b> and the other boat there is <b>100 pigeons</b>.
                 Will <b>You</b> save...",2,main_choice,pigeon,1,100,1 person,100 pigeons,FALSE,A,B,1 person,Can't decide,100 pigeons,"[""1 person"",""Can't decide"",""100 pigeons""]",1 person vs 100 pigeons,100 pigeons,animal,0,1,0,NA,NA,/Users/martincz/GitHub/COGS119/group_wi26_species_choices/analysis/../data/raw_data/p1dh73qts4t_1772139401019.csv,3,3,2,3,3,3,3,3,3,How much do we value human lives compared to animal lives? Or where those values intersect?,4,18 to 24,Female,Native / near-native,Yes,Omnivore,FALSE
html-button-response,28,12,160549,p1dh73qts4t,You,beaver,6201,"On one boat there is <b>100 people</b> and the other boat there is <b>10 pigeons</b>.
                 Will <b>You</b> save...",0,main_choice,pigeon,100,10,100 people,10 pigeons,FALSE,A,B,100 people,Can't decide,10 pigeons,"[""100 people"",""Can't decide"",""10 pigeons""]",100 people vs 10 pigeons,100 people,human,1,0,1,NA,NA,/Users/martincz/GitHub/COGS119/group_wi26_species_choices/analysis/../data/raw_data/p1dh73qts4t_1772139401019.csv,3,3,2,3,3,3,3,3,3,How much do we value human lives compared to animal lives? Or where those values intersect?,4,18 to 24,Female,Native / near-native,Yes,Omnivore,FALSE
html-button-response,30,13,165938,p1dh73qts4t,You,beaver,4882,"On one boat there is <b>1 person</b> and the other boat there is <b>10 cats</b>.
                 Will <b>You</b> save...",0,main_choice,cat,1,10,1 person,10 cats,TRUE,B,A,10 cats,Can't decide,1 person,"[""10 cats"",""Can't decide"",""1 person""]",1 person vs 10 cats,10 cats,animal,0,1,0,NA,NA,/Users/martincz/GitHub/COGS119/group_wi26_species_choices/analysis/../data/raw_data/p1dh73qts4t_1772139401019.csv,3,3,2,3,3,3,3,3,3,How much do we value human lives compared to animal lives? Or where those values intersect?,4,18 to 24,Female,Native / near-native,Yes,Omnivore,FALSE
html-button-response,32,14,183364,p1dh73qts4t,You,beaver,16917,"On one boat there is <b>10 people</b> and the other boat there is <b>100 bunnies</b>.
                 Will <b>You</b> save...",2,main_choice,bunny,10,100,10 people,100 bunnies,FALSE,A,B,10 people,Can't decide,100 bunnies,"[""10 people"",""Can't decide"",""100 bunnies""]",10 people vs 100 bunnies,100 bunnies,animal,0,1,0,NA,NA,/Users/martincz/GitHub/COGS119/group_wi26_species_choices/analysis/../data/raw_data/p1dh73qts4t_1772139401019.csv,3,3,2,3,3,3,3,3,3,How much do we value human lives compared to animal lives? Or where those values intersect?,4,18 to 24,Female,Native / near-native,Yes,Omnivore,FALSE
html-button-response,34,15,187290,p1dh73qts4t,You,beaver,3418,"On one boat there is <b>100 people</b> and the other boat there is <b>1 pig</b>.
                 Will <b>You</b> save...",2,main_choice,pig,100,1,100 people,1 pig,TRUE,B,A,1 pig,Can't decide,100 people,"[""1 pig"",""Can't decide"",""100 people""]",100 people vs 1 pig,100 people,human,1,0,1,NA,NA,/Users/martincz/GitHub/COGS119/group_wi26_species_choices/analysis/../data/raw_data/p1dh73qts4t_1772139401019.csv,3,3,2,3,3,3,3,3,3,How much do we value human lives compared to animal lives? Or where those values intersect?,4,18 to 24,Female,Native / near-native,Yes,Omnivore,FALSE
html-button-response,36,16,190174,p1dh73qts4t,You,beaver,2358,"On one boat there is <b>100 people</b> and the other boat there is <b>10 clams</b>.
                 Will <b>You</b> save...",0,main_choice,clam,100,10,100 people,10 clams,FALSE,A,B,100 people,Can't decide,10 clams,"[""100 people"",""Can't decide"",""10 clams""]",100 people vs 10 clams,100 people,human,1,0,1,NA,NA,/Users/martincz/GitHub/COGS119/group_wi26_species_choices/analysis/../data/raw_data/p1dh73qts4t_1772139401019.csv,3,3,2,3,3,3,3,3,3,How much do we value human lives compared to animal lives? Or where those values intersect?,4,18 to 24,Female,Native / near-native,Yes,Omnivore,FALSE
html-button-response,38,17,215719,p1dh73qts4t,You,beaver,25039,"On one boat there is <b>1 person</b> and the other boat there is <b>10 pigeons</b>.
                 Will <b>You</b> save...",2,main_choice,pigeon,1,10,1 person,10 pigeons,TRUE,B,A,10 pigeons,Can't decide,1 person,"[""10 pigeons"",""Can't decide"",""1 person""]",1 person vs 10 pigeons,1 person,human,1,0,1,NA,NA,/Users/martincz/GitHub/COGS119/group_wi26_species_choices/analysis/../data/raw_data/p1dh73qts4t_1772139401019.csv,3,3,2,3,3,3,3,3,3,How much do we value human lives compared to animal lives? Or where those values intersect?,4,18 to 24,Female,Native / near-native,Yes,Omnivore,FALSE
html-button-response,40,18,225089,p1dh73qts4t,You,beaver,8863,"On one boat there is <b>1 person</b> and the other boat there is <b>1 cat</b>.
                 Will <b>You</b> save...",0,main_choice,cat,1,1,1 person,1 cat,TRUE,B,A,1 cat,Can't decide,1 person,"[""1 cat"",""Can't decide"",""1 person""]",1 person vs 1 cat,1 cat,animal,0,1,0,NA,NA,/Users/martincz/GitHub/COGS119/group_wi26_species_choices/analysis/../data/raw_data/p1dh73qts4t_1772139401019.csv,3,3,2,3,3,3,3,3,3,How much do we value human lives compared to animal lives? Or where those values intersect?,4,18 to 24,Female,Native / near-native,Yes,Omnivore,FALSE
html-button-response,42,19,231543,p1dh73qts4t,You,beaver,5945,"On one boat there is <b>10 people</b> and the other boat there is <b>100 dogs</b>.
                 Will <b>You</b> save...",2,main_choice,dog,10,100,10 people,100 dogs,FALSE,A,B,10 people,Can't decide,100 dogs,"[""10 people"",""Can't decide"",""100 dogs""]",10 people vs 100 dogs,100 dogs,animal,0,1,0,NA,NA,/Users/martincz/GitHub/COGS119/group_wi26_species_choices/analysis/../data/raw_data/p1dh73qts4t_1772139401019.csv,3,3,2,3,3,3,3,3,3,How much do we value human lives compared to animal lives? Or where those values intersect?,4,18 to 24,Female,Native / near-native,Yes,Omnivore,FALSE
html-button-response,44,20,260148,p1dh73qts4t,You,beaver,28097,"On one boat there is <b>10 people</b> and the other boat there is <b>1 dog</b>.
                 Will <b>You</b> save...",0,main_choice,dog,10,1,10 people,1 dog,FALSE,A,B,10 people,Can't decide,1 dog,"[""10 people"",""Can't decide"",""1 dog""]",10 people vs 1 dog,10 people,human,1,0,1,NA,NA,/Users/martincz/GitHub/COGS119/group_wi26_species_choices/analysis/../data/raw_data/p1dh73qts4t_1772139401019.csv,3,3,2,3,3,3,3,3,3,How much do we value human lives compared to animal lives? Or where those values intersect?,4,18 to 24,Female,Native / near-native,Yes,Omnivore,FALSE
html-button-response,46,21,263802,p1dh73qts4t,You,beaver,3142,"On one boat there is <b>1 person</b> and the other boat there is <b>100 pigs</b>.
                 Will <b>You</b> save...",0,main_choice,pig,1,100,1 person,100 pigs,TRUE,B,A,100 pigs,Can't decide,1 person,"[""100 pigs"",""Can't decide"",""1 person""]",1 person vs 100 pigs,100 pigs,animal,0,1,0,NA,NA,/Users/martincz/GitHub/COGS119/group_wi26_species_choices/analysis/../data/raw_data/p1dh73qts4t_1772139401019.csv,3,3,2,3,3,3,3,3,3,How much do we value human lives compared to animal lives? Or where those values intersect?,4,18 to 24,Female,Native / near-native,Yes,Omnivore,FALSE
html-button-response,48,22,266725,p1dh73qts4t,You,beaver,2415,"On one boat there is <b>100 people</b> and the other boat there is <b>1 bunny</b>.
                 Will <b>You</b> save...",0,main_choice,bunny,100,1,100 people,1 bunny,FALSE,A,B,100 people,Can't decide,1 bunny,"[""100 people"",""Can't decide"",""1 bunny""]",100 people vs 1 bunny,100 people,human,1,0,1,NA,NA,/Users/martincz/GitHub/COGS119/group_wi26_species_choices/analysis/../data/raw_data/p1dh73qts4t_1772139401019.csv,3,3,2,3,3,3,3,3,3,How much do we value human lives compared to animal lives? Or where those values intersect?,4,18 to 24,Female,Native / near-native,Yes,Omnivore,FALSE
html-button-response,50,23,271060,p1dh73qts4t,You,beaver,3822,"On one boat there is <b>1 person</b> and the other boat there is <b>100 cats</b>.
                 Will <b>You</b> save...",0,main_choice,cat,1,100,1 person,100 cats,TRUE,B,A,100 cats,Can't decide,1 person,"[""100 cats"",""Can't decide"",""1 person""]",1 person vs 100 cats,100 cats,animal,0,1,0,NA,NA,/Users/martincz/GitHub/COGS119/group_wi26_species_choices/analysis/../data/raw_data/p1dh73qts4t_1772139401019.csv,3,3,2,3,3,3,3,3,3,How much do we value human lives compared to animal lives? Or where those values intersect?,4,18 to 24,Female,Native / near-native,Yes,Omnivore,FALSE
html-button-response,52,24,300945,p1dh73qts4t,You,beaver,29379,"On one boat there is <b>1 person</b> and the other boat there is <b>10 pigs</b>.
                 Will <b>You</b> save...",2,main_choice,pig,1,10,1 person,10 pigs,TRUE,B,A,10 pigs,Can't decide,1 person,"[""10 pigs"",""Can't decide"",""1 person""]",1 person vs 10 pigs,1 person,human,1,0,1,NA,NA,/Users/martincz/GitHub/COGS119/group_wi26_species_choices/analysis/../data/raw_data/p1dh73qts4t_1772139401019.csv,3,3,2,3,3,3,3,3,3,How much do we value human lives compared to animal lives? Or where those values intersect?,4,18 to 24,Female,Native / near-native,Yes,Omnivore,FALSE
html-button-response,54,25,304720,p1dh73qts4t,You,beaver,3262,"On one boat there is <b>1 person</b> and the other boat there is <b>10 dogs</b>.
                 Will <b>You</b> save...",2,main_choice,dog,1,10,1 person,10 dogs,FALSE,A,B,1 person,Can't decide,10 dogs,"[""1 person"",""Can't decide"",""10 dogs""]",1 person vs 10 dogs,10 dogs,animal,0,1,0,NA,NA,/Users/martincz/GitHub/COGS119/group_wi26_species_choices/analysis/../data/raw_data/p1dh73qts4t_1772139401019.csv,3,3,2,3,3,3,3,3,3,How much do we value human lives compared to animal lives? Or where those values intersect?,4,18 to 24,Female,Native / near-native,Yes,Omnivore,FALSE
html-button-response,56,26,308653,p1dh73qts4t,You,beaver,3426,"On one boat there is <b>1 person</b> and the other boat there is <b>100 clams</b>.
                 Will <b>You</b> save...",0,main_choice,clam,1,100,1 person,100 clams,FALSE,A,B,1 person,Can't decide,100 clams,"[""1 person"",""Can't decide"",""100 clams""]",1 person vs 100 clams,1 person,human,1,0,1,NA,NA,/Users/martincz/GitHub/COGS119/group_wi26_species_choices/analysis/../data/raw_data/p1dh73qts4t_1772139401019.csv,3,3,2,3,3,3,3,3,3,How much do we value human lives compared to animal lives? Or where those values intersect?,4,18 to 24,Female,Native / near-native,Yes,Omnivore,FALSE
html-button-response,58,27,333640,p1dh73qts4t,You,beaver,24475,"On one boat there is <b>10 people</b> and the other boat there is <b>100 pigs</b>.
                 Will <b>You</b> save...",0,main_choice,pig,10,100,10 people,100 pigs,TRUE,B,A,100 pigs,Can't decide,10 people,"[""100 pigs"",""Can't decide"",""10 people""]",10 people vs 100 pigs,100 pigs,animal,0,1,0,NA,NA,/Users/martincz/GitHub/COGS119/group_wi26_species_choices/analysis/../data/raw_data/p1dh73qts4t_1772139401019.csv,3,3,2,3,3,3,3,3,3,How much do we value human lives compared to animal lives? Or where those values intersect?,4,18 to 24,Female,Native / near-native,Yes,Omnivore,FALSE
html-button-response,60,28,362481,p1dh73qts4t,You,beaver,28326,"On one boat there is <b>1 person</b> and the other boat there is <b>1 dog</b>.
                 Will <b>You</b> save...",2,main_choice,dog,1,1,1 person,1 dog,FALSE,A,B,1 person,Can't decide,1 dog,"[""1 person"",""Can't decide"",""1 dog""]",1 person vs 1 dog,1 dog,animal,0,1,0,NA,NA,/Users/martincz/GitHub/COGS119/group_wi26_species_choices/analysis/../data/raw_data/p1dh73qts4t_1772139401019.csv,3,3,2,3,3,3,3,3,3,How much do we value human lives compared to animal lives? Or where those values intersect?,4,18 to 24,Female,Native / near-native,Yes,Omnivore,FALSE
html-button-response,62,29,365357,p1dh73qts4t,You,beaver,2361,"On one boat there is <b>1 person</b> and the other boat there is <b>1 pigeon</b>.
                 Will <b>You</b> save...",0,main_choice,pigeon,1,1,1 person,1 pigeon,FALSE,A,B,1 person,Can't decide,1 pigeon,"[""1 person"",""Can't decide"",""1 pigeon""]",1 person vs 1 pigeon,1 person,human,1,0,1,NA,NA,/Users/martincz/GitHub/COGS119/group_wi26_species_choices/analysis/../data/raw_data/p1dh73qts4t_1772139401019.csv,3,3,2,3,3,3,3,3,3,How much do we value human lives compared to animal lives? Or where those values intersect?,4,18 to 24,Female,Native / near-native,Yes,Omnivore,FALSE
html-button-response,64,30,370417,p1dh73qts4t,You,beaver,4554,"On one boat there is <b>1 person</b> and the other boat there is <b>1 bunny</b>.
                 Will <b>You</b> save...",2,main_choice,bunny,1,1,1 person,1 bunny,TRUE,B,A,1 bunny,Can't decide,1 person,"[""1 bunny"",""Can't decide"",""1 person""]",1 person vs 1 bunny,1 person,human,1,0,1,NA,NA,/Users/martincz/GitHub/COGS119/group_wi26_species_choices/analysis/../data/raw_data/p1dh73qts4t_1772139401019.csv,3,3,2,3,3,3,3,3,3,How much do we value human lives compared to animal lives? Or where those values intersect?,4,18 to 24,Female,Native / near-native,Yes,Omnivore,FALSE
html-button-response,66,31,373094,p1dh73qts4t,You,beaver,2157,"On one boat there is <b>100 people</b> and the other boat there is <b>10 pigs</b>.
                 Will <b>You</b> save...",2,main_choice,pig,100,10,100 people,10 pigs,TRUE,B,A,10 pigs,Can't decide,100 people,"[""10 pigs"",""Can't decide"",""100 people""]",100 people vs 10 pigs,100 people,human,1,0,1,NA,NA,/Users/martincz/GitHub/COGS119/group_wi26_species_choices/analysis/../data/raw_data/p1dh73qts4t_1772139401019.csv,3,3,2,3,3,3,3,3,3,How much do we value human lives compared to animal lives? Or where those values intersect?,4,18 to 24,Female,Native / near-native,Yes,Omnivore,FALSE
html-button-response,68,32,375459,p1dh73qts4t,You,beaver,1861,"On one boat there is <b>100 people</b> and the other boat there is <b>1 pigeon</b>.
                 Will <b>You</b> save...",0,main_choice,pigeon,100,1,100 people,1 pigeon,FALSE,A,B,100 people,Can't decide,1 pigeon,"[""100 people"",""Can't decide"",""1 pigeon""]",100 people vs 1 pigeon,100 people,human,1,0,1,NA,NA,/Users/martincz/GitHub/COGS119/group_wi26_species_choices/analysis/../data/raw_data/p1dh73qts4t_1772139401019.csv,3,3,2,3,3,3,3,3,3,How much do we value human lives compared to animal lives? Or where those values intersect?,4,18 to 24,Female,Native / near-native,Yes,Omnivore,FALSE
html-button-response,70,33,377351,p1dh73qts4t,You,beaver,1387,"On one boat there is <b>100 people</b> and the other boat there is <b>1 clam</b>.
                 Will <b>You</b> save...",0,main_choice,clam,100,1,100 people,1 clam,FALSE,A,B,100 people,Can't decide,1 clam,"[""100 people"",""Can't decide"",""1 clam""]",100 people vs 1 clam,100 people,human,1,0,1,NA,NA,/Users/martincz/GitHub/COGS119/group_wi26_species_choices/analysis/../data/raw_data/p1dh73qts4t_1772139401019.csv,3,3,2,3,3,3,3,3,3,How much do we value human lives compared to animal lives? Or where those values intersect?,4,18 to 24,Female,Native / near-native,Yes,Omnivore,FALSE
html-button-response,72,34,379850,p1dh73qts4t,You,beaver,1987,"On one boat there is <b>1 person</b> and the other boat there is <b>100 bunnies</b>.
                 Will <b>You</b> save...",0,main_choice,bunny,1,100,1 person,100 bunnies,TRUE,B,A,100 bunnies,Can't decide,1 person,"[""100 bunnies"",""Can't decide"",""1 person""]",1 person vs 100 bunnies,100 bunnies,animal,0,1,0,NA,NA,/Users/martincz/GitHub/COGS119/group_wi26_species_choices/analysis/../data/raw_data/p1dh73qts4t_1772139401019.csv,3,3,2,3,3,3,3,3,3,How much do we value human lives compared to animal lives? Or where those values intersect?,4,18 to 24,Female,Native / near-native,Yes,Omnivore,FALSE
html-button-response,74,35,386104,p1dh73qts4t,You,beaver,5743,"On one boat there is <b>1 person</b> and the other boat there is <b>1 pig</b>.
                 Will <b>You</b> save...",0,main_choice,pig,1,1,1 person,1 pig,FALSE,A,B,1 person,Can't decide,1 pig,"[""1 person"",""Can't decide"",""1 pig""]",1 person vs 1 pig,1 person,human,1,0,1,NA,NA,/Users/martincz/GitHub/COGS119/group_wi26_species_choices/analysis/../data/raw_data/p1dh73qts4t_1772139401019.csv,3,3,2,3,3,3,3,3,3,How much do we value human lives compared to animal lives? Or where those values intersect?,4,18 to 24,Female,Native / near-native,Yes,Omnivore,FALSE
html-button-response,76,36,389958,p1dh73qts4t,You,beaver,3338,"On one boat there is <b>10 people</b> and the other boat there is <b>100 pigeons</b>.
                 Will <b>You</b> save...",0,main_choice,pigeon,10,100,10 people,100 pigeons,TRUE,B,A,100 pigeons,Can't decide,10 people,"[""100 pigeons"",""Can't decide"",""10 people""]",10 people vs 100 pigeons,100 pigeons,animal,0,1,0,NA,NA,/Users/martincz/GitHub/COGS119/group_wi26_species_choices/analysis/../data/raw_data/p1dh73qts4t_1772139401019.csv,3,3,2,3,3,3,3,3,3,How much do we value human lives compared to animal lives? Or where those values intersect?,4,18 to 24,Female,Native / near-native,Yes,Omnivore,FALSE
html-button-response,78,37,392355,p1dh73qts4t,You,beaver,1890,"On one boat there is <b>1 person</b> and the other boat there is <b>1 clam</b>.
                 Will <b>You</b> save...",2,main_choice,clam,1,1,1 person,1 clam,TRUE,B,A,1 clam,Can't decide,1 person,"[""1 clam"",""Can't decide"",""1 person""]",1 person vs 1 clam,1 person,human,1,0,1,NA,NA,/Users/martincz/GitHub/COGS119/group_wi26_species_choices/analysis/../data/raw_data/p1dh73qts4t_1772139401019.csv,3,3,2,3,3,3,3,3,3,How much do we value human lives compared to animal lives? Or where those values intersect?,4,18 to 24,Female,Native / near-native,Yes,Omnivore,FALSE
html-button-response,80,38,395154,p1dh73qts4t,You,beaver,2292,"On one boat there is <b>1 person</b> and the other boat there is <b>100 dogs</b>.
                 Will <b>You</b> save...",2,main_choice,dog,1,100,1 person,100 dogs,FALSE,A,B,1 person,Can't decide,100 dogs,"[""1 person"",""Can't decide"",""100 dogs""]",1 person vs 100 dogs,100 dogs,animal,0,1,0,NA,NA,/Users/martincz/GitHub/COGS119/group_wi26_species_choices/analysis/../data/raw_data/p1dh73qts4t_1772139401019.csv,3,3,2,3,3,3,3,3,3,How much do we value human lives compared to animal lives? Or where those values intersect?,4,18 to 24,Female,Native / near-native,Yes,Omnivore,FALSE
html-button-response,82,39,405020,p1dh73qts4t,You,beaver,9356,"On one boat there is <b>10 people</b> and the other boat there is <b>100 cats</b>.
                 Will <b>You</b> save...",2,main_choice,cat,10,100,10 people,100 cats,FALSE,A,B,10 people,Can't decide,100 cats,"[""10 people"",""Can't decide"",""100 cats""]",10 people vs 100 cats,100 cats,animal,0,1,0,NA,NA,/Users/martincz/GitHub/COGS119/group_wi26_species_choices/analysis/../data/raw_data/p1dh73qts4t_1772139401019.csv,3,3,2,3,3,3,3,3,3,How much do we value human lives compared to animal lives? Or where those values intersect?,4,18 to 24,Female,Native / near-native,Yes,Omnivore,FALSE
html-button-response,84,40,425425,p1dh73qts4t,You,beaver,19897,"On one boat there is <b>100 people</b> and the other boat there is <b>10 cats</b>.
                 Will <b>You</b> save...",0,main_choice,cat,100,10,100 people,10 cats,FALSE,A,B,100 people,Can't decide,10 cats,"[""100 people"",""Can't decide"",""10 cats""]",100 people vs 10 cats,100 people,human,1,0,1,NA,NA,/Users/martincz/GitHub/COGS119/group_wi26_species_choices/analysis/../data/raw_data/p1dh73qts4t_1772139401019.csv,3,3,2,3,3,3,3,3,3,How much do we value human lives compared to animal lives? Or where those values intersect?,4,18 to 24,Female,Native / near-native,Yes,Omnivore,FALSE
html-button-response,86,41,431790,p1dh73qts4t,You,beaver,5861,"On one boat there is <b>1 person</b> and the other boat there is <b>10 clams</b>.
                 Will <b>You</b> save...",0,main_choice,clam,1,10,1 person,10 clams,TRUE,B,A,10 clams,Can't decide,1 person,"[""10 clams"",""Can't decide"",""1 person""]",1 person vs 10 clams,10 clams,animal,0,1,0,NA,NA,/Users/martincz/GitHub/COGS119/group_wi26_species_choices/analysis/../data/raw_data/p1dh73qts4t_1772139401019.csv,3,3,2,3,3,3,3,3,3,How much do we value human lives compared to animal lives? Or where those values intersect?,4,18 to 24,Female,Native / near-native,Yes,Omnivore,FALSE
html-button-response,88,42,443168,p1dh73qts4t,You,beaver,10871,"On one boat there is <b>10 people</b> and the other boat there is <b>1 clam</b>.
                 Will <b>You</b> save...",2,main_choice,clam,10,1,10 people,1 clam,TRUE,B,A,1 clam,Can't decide,10 people,"[""1 clam"",""Can't decide"",""10 people""]",10 people vs 1 clam,10 people,human,1,0,1,NA,NA,/Users/martincz/GitHub/COGS119/group_wi26_species_choices/analysis/../data/raw_data/p1dh73qts4t_1772139401019.csv,3,3,2,3,3,3,3,3,3,How much do we value human lives compared to animal lives? Or where those values intersect?,4,18 to 24,Female,Native / near-native,Yes,Omnivore,FALSE
html-button-response,6,1,44551,p1w5ffoodro,You,goose,5030,"On one boat there is <b>1 person</b> and the other boat there is <b>10 cats</b>.
                 Will <b>You</b> save...",2,main_choice,cat,1,10,1 person,10 cats,FALSE,A,B,1 person,Can't decide,10 cats,"[""1 person"",""Can't decide"",""10 cats""]",1 person vs 10 cats,10 cats,animal,0,1,0,NA,NA,/Users/martincz/GitHub/COGS119/group_wi26_species_choices/analysis/../data/raw_data/p1w5ffoodro_1772141009154.csv,2,3,0,3,3,3,3,3,1,"something like the trolley problem, asking abour morality",1,18 to 24,Male,Fluent,Yes,Omnivore,FALSE
html-button-response,8,2,47497,p1w5ffoodro,You,goose,2439,"On one boat there is <b>10 people</b> and the other boat there is <b>100 pigs</b>.
                 Will <b>You</b> save...",0,main_choice,pig,10,100,10 people,100 pigs,FALSE,A,B,10 people,Can't decide,100 pigs,"[""10 people"",""Can't decide"",""100 pigs""]",10 people vs 100 pigs,10 people,human,1,0,1,NA,NA,/Users/martincz/GitHub/COGS119/group_wi26_species_choices/analysis/../data/raw_data/p1w5ffoodro_1772141009154.csv,2,3,0,3,3,3,3,3,1,"something like the trolley problem, asking abour morality",1,18 to 24,Male,Fluent,Yes,Omnivore,FALSE
html-button-response,10,3,49131,p1w5ffoodro,You,goose,1130,"On one boat there is <b>1 person</b> and the other boat there is <b>1 pig</b>.
                 Will <b>You</b> save...",2,main_choice,pig,1,1,1 person,1 pig,TRUE,B,A,1 pig,Can't decide,1 person,"[""1 pig"",""Can't decide"",""1 person""]",1 person vs 1 pig,1 person,human,1,0,1,NA,NA,/Users/martincz/GitHub/COGS119/group_wi26_species_choices/analysis/../data/raw_data/p1w5ffoodro_1772141009154.csv,2,3,0,3,3,3,3,3,1,"something like the trolley problem, asking abour morality",1,18 to 24,Male,Fluent,Yes,Omnivore,FALSE
html-button-response,12,4,52430,p1w5ffoodro,You,goose,2793,"On one boat there is <b>100 people</b> and the other boat there is <b>1 dog</b>.
                 Will <b>You</b> save...",2,main_choice,dog,100,1,100 people,1 dog,TRUE,B,A,1 dog,Can't decide,100 people,"[""1 dog"",""Can't decide"",""100 people""]",100 people vs 1 dog,100 people,human,1,0,1,NA,NA,/Users/martincz/GitHub/COGS119/group_wi26_species_choices/analysis/../data/raw_data/p1w5ffoodro_1772141009154.csv,2,3,0,3,3,3,3,3,1,"something like the trolley problem, asking abour morality",1,18 to 24,Male,Fluent,Yes,Omnivore,FALSE
html-button-response,14,5,54046,p1w5ffoodro,You,goose,1111,"On one boat there is <b>100 people</b> and the other boat there is <b>1 pig</b>.
                 Will <b>You</b> save...",0,main_choice,pig,100,1,100 people,1 pig,FALSE,A,B,100 people,Can't decide,1 pig,"[""100 people"",""Can't decide"",""1 pig""]",100 people vs 1 pig,100 people,human,1,0,1,NA,NA,/Users/martincz/GitHub/COGS119/group_wi26_species_choices/analysis/../data/raw_data/p1w5ffoodro_1772141009154.csv,2,3,0,3,3,3,3,3,1,"something like the trolley problem, asking abour morality",1,18 to 24,Male,Fluent,Yes,Omnivore,FALSE
html-button-response,16,6,58915,p1w5ffoodro,You,goose,4362,"On one boat there is <b>1 person</b> and the other boat there is <b>1 cat</b>.
                 Will <b>You</b> save...",2,main_choice,cat,1,1,1 person,1 cat,FALSE,A,B,1 person,Can't decide,1 cat,"[""1 person"",""Can't decide"",""1 cat""]",1 person vs 1 cat,1 cat,animal,0,1,0,NA,NA,/Users/martincz/GitHub/COGS119/group_wi26_species_choices/analysis/../data/raw_data/p1w5ffoodro_1772141009154.csv,2,3,0,3,3,3,3,3,1,"something like the trolley problem, asking abour morality",1,18 to 24,Male,Fluent,Yes,Omnivore,FALSE
html-button-response,18,7,61164,p1w5ffoodro,You,goose,1741,"On one boat there is <b>1 person</b> and the other boat there is <b>100 pigeons</b>.
                 Will <b>You</b> save...",2,main_choice,pigeon,1,100,1 person,100 pigeons,TRUE,B,A,100 pigeons,Can't decide,1 person,"[""100 pigeons"",""Can't decide"",""1 person""]",1 person vs 100 pigeons,1 person,human,1,0,1,NA,NA,/Users/martincz/GitHub/COGS119/group_wi26_species_choices/analysis/../data/raw_data/p1w5ffoodro_1772141009154.csv,2,3,0,3,3,3,3,3,1,"something like the trolley problem, asking abour morality",1,18 to 24,Male,Fluent,Yes,Omnivore,FALSE
html-button-response,20,8,63513,p1w5ffoodro,You,goose,1844,"On one boat there is <b>1 person</b> and the other boat there is <b>100 clams</b>.
                 Will <b>You</b> save...",2,main_choice,clam,1,100,1 person,100 clams,TRUE,B,A,100 clams,Can't decide,1 person,"[""100 clams"",""Can't decide"",""1 person""]",1 person vs 100 clams,1 person,human,1,0,1,NA,NA,/Users/martincz/GitHub/COGS119/group_wi26_species_choices/analysis/../data/raw_data/p1w5ffoodro_1772141009154.csv,2,3,0,3,3,3,3,3,1,"something like the trolley problem, asking abour morality",1,18 to 24,Male,Fluent,Yes,Omnivore,FALSE
html-button-response,22,9,65464,p1w5ffoodro,You,goose,1445,"On one boat there is <b>10 people</b> and the other boat there is <b>100 clams</b>.
                 Will <b>You</b> save...",2,main_choice,clam,10,100,10 people,100 clams,TRUE,B,A,100 clams,Can't decide,10 people,"[""100 clams"",""Can't decide"",""10 people""]",10 people vs 100 clams,10 people,human,1,0,1,NA,NA,/Users/martincz/GitHub/COGS119/group_wi26_species_choices/analysis/../data/raw_data/p1w5ffoodro_1772141009154.csv,2,3,0,3,3,3,3,3,1,"something like the trolley problem, asking abour morality",1,18 to 24,Male,Fluent,Yes,Omnivore,FALSE
html-button-response,24,10,68814,p1w5ffoodro,You,goose,2845,"On one boat there is <b>1 person</b> and the other boat there is <b>1 dog</b>.
                 Will <b>You</b> save...",2,main_choice,dog,1,1,1 person,1 dog,FALSE,A,B,1 person,Can't decide,1 dog,"[""1 person"",""Can't decide"",""1 dog""]",1 person vs 1 dog,1 dog,animal,0,1,0,NA,NA,/Users/martincz/GitHub/COGS119/group_wi26_species_choices/analysis/../data/raw_data/p1w5ffoodro_1772141009154.csv,2,3,0,3,3,3,3,3,1,"something like the trolley problem, asking abour morality",1,18 to 24,Male,Fluent,Yes,Omnivore,FALSE
html-button-response,26,11,71031,p1w5ffoodro,You,goose,1711,"On one boat there is <b>100 people</b> and the other boat there is <b>1 clam</b>.
                 Will <b>You</b> save...",0,main_choice,clam,100,1,100 people,1 clam,FALSE,A,B,100 people,Can't decide,1 clam,"[""100 people"",""Can't decide"",""1 clam""]",100 people vs 1 clam,100 people,human,1,0,1,NA,NA,/Users/martincz/GitHub/COGS119/group_wi26_species_choices/analysis/../data/raw_data/p1w5ffoodro_1772141009154.csv,2,3,0,3,3,3,3,3,1,"something like the trolley problem, asking abour morality",1,18 to 24,Male,Fluent,Yes,Omnivore,FALSE
html-button-response,28,12,72814,p1w5ffoodro,You,goose,1277,"On one boat there is <b>10 people</b> and the other boat there is <b>1 bunny</b>.
                 Will <b>You</b> save...",0,main_choice,bunny,10,1,10 people,1 bunny,FALSE,A,B,10 people,Can't decide,1 bunny,"[""10 people"",""Can't decide"",""1 bunny""]",10 people vs 1 bunny,10 people,human,1,0,1,NA,NA,/Users/martincz/GitHub/COGS119/group_wi26_species_choices/analysis/../data/raw_data/p1w5ffoodro_1772141009154.csv,2,3,0,3,3,3,3,3,1,"something like the trolley problem, asking abour morality",1,18 to 24,Male,Fluent,Yes,Omnivore,FALSE
html-button-response,30,13,74463,p1w5ffoodro,You,goose,1144,"On one boat there is <b>10 people</b> and the other boat there is <b>1 pigeon</b>.
                 Will <b>You</b> save...",0,main_choice,pigeon,10,1,10 people,1 pigeon,FALSE,A,B,10 people,Can't decide,1 pigeon,"[""10 people"",""Can't decide"",""1 pigeon""]",10 people vs 1 pigeon,10 people,human,1,0,1,NA,NA,/Users/martincz/GitHub/COGS119/group_wi26_species_choices/analysis/../data/raw_data/p1w5ffoodro_1772141009154.csv,2,3,0,3,3,3,3,3,1,"something like the trolley problem, asking abour morality",1,18 to 24,Male,Fluent,Yes,Omnivore,FALSE
html-button-response,32,14,76465,p1w5ffoodro,You,goose,1498,"On one boat there is <b>100 people</b> and the other boat there is <b>1 bunny</b>.
                 Will <b>You</b> save...",0,main_choice,bunny,100,1,100 people,1 bunny,FALSE,A,B,100 people,Can't decide,1 bunny,"[""100 people"",""Can't decide"",""1 bunny""]",100 people vs 1 bunny,100 people,human,1,0,1,NA,NA,/Users/martincz/GitHub/COGS119/group_wi26_species_choices/analysis/../data/raw_data/p1w5ffoodro_1772141009154.csv,2,3,0,3,3,3,3,3,1,"something like the trolley problem, asking abour morality",1,18 to 24,Male,Fluent,Yes,Omnivore,FALSE
html-button-response,34,15,81831,p1w5ffoodro,You,goose,4858,"On one boat there is <b>100 people</b> and the other boat there is <b>10 dogs</b>.
                 Will <b>You</b> save...",0,main_choice,dog,100,10,100 people,10 dogs,TRUE,B,A,10 dogs,Can't decide,100 people,"[""10 dogs"",""Can't decide"",""100 people""]",100 people vs 10 dogs,10 dogs,animal,0,1,0,NA,NA,/Users/martincz/GitHub/COGS119/group_wi26_species_choices/analysis/../data/raw_data/p1w5ffoodro_1772141009154.csv,2,3,0,3,3,3,3,3,1,"something like the trolley problem, asking abour morality",1,18 to 24,Male,Fluent,Yes,Omnivore,FALSE
html-button-response,36,16,83898,p1w5ffoodro,You,goose,1561,"On one boat there is <b>1 person</b> and the other boat there is <b>10 pigs</b>.
                 Will <b>You</b> save...",0,main_choice,pig,1,10,1 person,10 pigs,FALSE,A,B,1 person,Can't decide,10 pigs,"[""1 person"",""Can't decide"",""10 pigs""]",1 person vs 10 pigs,1 person,human,1,0,1,NA,NA,/Users/martincz/GitHub/COGS119/group_wi26_species_choices/analysis/../data/raw_data/p1w5ffoodro_1772141009154.csv,2,3,0,3,3,3,3,3,1,"something like the trolley problem, asking abour morality",1,18 to 24,Male,Fluent,Yes,Omnivore,FALSE
html-button-response,38,17,85329,p1w5ffoodro,You,goose,925,"On one boat there is <b>100 people</b> and the other boat there is <b>1 pigeon</b>.
                 Will <b>You</b> save...",2,main_choice,pigeon,100,1,100 people,1 pigeon,TRUE,B,A,1 pigeon,Can't decide,100 people,"[""1 pigeon"",""Can't decide"",""100 people""]",100 people vs 1 pigeon,100 people,human,1,0,1,NA,NA,/Users/martincz/GitHub/COGS119/group_wi26_species_choices/analysis/../data/raw_data/p1w5ffoodro_1772141009154.csv,2,3,0,3,3,3,3,3,1,"something like the trolley problem, asking abour morality",1,18 to 24,Male,Fluent,Yes,Omnivore,FALSE
html-button-response,40,18,86647,p1w5ffoodro,You,goose,816,"On one boat there is <b>1 person</b> and the other boat there is <b>10 pigeons</b>.
                 Will <b>You</b> save...",2,main_choice,pigeon,1,10,1 person,10 pigeons,TRUE,B,A,10 pigeons,Can't decide,1 person,"[""10 pigeons"",""Can't decide"",""1 person""]",1 person vs 10 pigeons,1 person,human,1,0,1,NA,NA,/Users/martincz/GitHub/COGS119/group_wi26_species_choices/analysis/../data/raw_data/p1w5ffoodro_1772141009154.csv,2,3,0,3,3,3,3,3,1,"something like the trolley problem, asking abour morality",1,18 to 24,Male,Fluent,Yes,Omnivore,FALSE
html-button-response,42,19,87997,p1w5ffoodro,You,goose,844,"On one boat there is <b>10 people</b> and the other boat there is <b>1 clam</b>.
                 Will <b>You</b> save...",0,main_choice,clam,10,1,10 people,1 clam,FALSE,A,B,10 people,Can't decide,1 clam,"[""10 people"",""Can't decide"",""1 clam""]",10 people vs 1 clam,10 people,human,1,0,1,NA,NA,/Users/martincz/GitHub/COGS119/group_wi26_species_choices/analysis/../data/raw_data/p1w5ffoodro_1772141009154.csv,2,3,0,3,3,3,3,3,1,"something like the trolley problem, asking abour morality",1,18 to 24,Male,Fluent,Yes,Omnivore,FALSE
html-button-response,44,20,89414,p1w5ffoodro,You,goose,911,"On one boat there is <b>10 people</b> and the other boat there is <b>1 dog</b>.
                 Will <b>You</b> save...",0,main_choice,dog,10,1,10 people,1 dog,FALSE,A,B,10 people,Can't decide,1 dog,"[""10 people"",""Can't decide"",""1 dog""]",10 people vs 1 dog,10 people,human,1,0,1,NA,NA,/Users/martincz/GitHub/COGS119/group_wi26_species_choices/analysis/../data/raw_data/p1w5ffoodro_1772141009154.csv,2,3,0,3,3,3,3,3,1,"something like the trolley problem, asking abour morality",1,18 to 24,Male,Fluent,Yes,Omnivore,FALSE
html-button-response,46,21,91314,p1w5ffoodro,You,goose,1395,"On one boat there is <b>10 people</b> and the other boat there is <b>1 cat</b>.
                 Will <b>You</b> save...",0,main_choice,cat,10,1,10 people,1 cat,FALSE,A,B,10 people,Can't decide,1 cat,"[""10 people"",""Can't decide"",""1 cat""]",10 people vs 1 cat,10 people,human,1,0,1,NA,NA,/Users/martincz/GitHub/COGS119/group_wi26_species_choices/analysis/../data/raw_data/p1w5ffoodro_1772141009154.csv,2,3,0,3,3,3,3,3,1,"something like the trolley problem, asking abour morality",1,18 to 24,Male,Fluent,Yes,Omnivore,FALSE
html-button-response,48,22,92680,p1w5ffoodro,You,goose,863,"On one boat there is <b>1 person</b> and the other boat there is <b>1 clam</b>.
                 Will <b>You</b> save...",0,main_choice,clam,1,1,1 person,1 clam,FALSE,A,B,1 person,Can't decide,1 clam,"[""1 person"",""Can't decide"",""1 clam""]",1 person vs 1 clam,1 person,human,1,0,1,NA,NA,/Users/martincz/GitHub/COGS119/group_wi26_species_choices/analysis/../data/raw_data/p1w5ffoodro_1772141009154.csv,2,3,0,3,3,3,3,3,1,"something like the trolley problem, asking abour morality",1,18 to 24,Male,Fluent,Yes,Omnivore,FALSE
html-button-response,50,23,98380,p1w5ffoodro,You,goose,5197,"On one boat there is <b>1 person</b> and the other boat there is <b>100 cats</b>.
                 Will <b>You</b> save...",0,main_choice,cat,1,100,1 person,100 cats,TRUE,B,A,100 cats,Can't decide,1 person,"[""100 cats"",""Can't decide"",""1 person""]",1 person vs 100 cats,100 cats,animal,0,1,0,NA,NA,/Users/martincz/GitHub/COGS119/group_wi26_species_choices/analysis/../data/raw_data/p1w5ffoodro_1772141009154.csv,2,3,0,3,3,3,3,3,1,"something like the trolley problem, asking abour morality",1,18 to 24,Male,Fluent,Yes,Omnivore,FALSE
html-button-response,52,24,100964,p1w5ffoodro,You,goose,2080,"On one boat there is <b>100 people</b> and the other boat there is <b>10 bunnies</b>.
                 Will <b>You</b> save...",0,main_choice,bunny,100,10,100 people,10 bunnies,FALSE,A,B,100 people,Can't decide,10 bunnies,"[""100 people"",""Can't decide"",""10 bunnies""]",100 people vs 10 bunnies,100 people,human,1,0,1,NA,NA,/Users/martincz/GitHub/COGS119/group_wi26_species_choices/analysis/../data/raw_data/p1w5ffoodro_1772141009154.csv,2,3,0,3,3,3,3,3,1,"something like the trolley problem, asking abour morality",1,18 to 24,Male,Fluent,Yes,Omnivore,FALSE
html-button-response,54,25,102731,p1w5ffoodro,You,goose,1260,"On one boat there is <b>100 people</b> and the other boat there is <b>10 cats</b>.
                 Will <b>You</b> save...",2,main_choice,cat,100,10,100 people,10 cats,TRUE,B,A,10 cats,Can't decide,100 people,"[""10 cats"",""Can't decide"",""100 people""]",100 people vs 10 cats,100 people,human,1,0,1,NA,NA,/Users/martincz/GitHub/COGS119/group_wi26_species_choices/analysis/../data/raw_data/p1w5ffoodro_1772141009154.csv,2,3,0,3,3,3,3,3,1,"something like the trolley problem, asking abour morality",1,18 to 24,Male,Fluent,Yes,Omnivore,FALSE
html-button-response,56,26,104363,p1w5ffoodro,You,goose,1126,"On one boat there is <b>1 person</b> and the other boat there is <b>10 clams</b>.
                 Will <b>You</b> save...",0,main_choice,clam,1,10,1 person,10 clams,FALSE,A,B,1 person,Can't decide,10 clams,"[""1 person"",""Can't decide"",""10 clams""]",1 person vs 10 clams,1 person,human,1,0,1,NA,NA,/Users/martincz/GitHub/COGS119/group_wi26_species_choices/analysis/../data/raw_data/p1w5ffoodro_1772141009154.csv,2,3,0,3,3,3,3,3,1,"something like the trolley problem, asking abour morality",1,18 to 24,Male,Fluent,Yes,Omnivore,FALSE
html-button-response,58,27,105664,p1w5ffoodro,You,goose,798,"On one boat there is <b>100 people</b> and the other boat there is <b>10 pigeons</b>.
                 Will <b>You</b> save...",2,main_choice,pigeon,100,10,100 people,10 pigeons,TRUE,B,A,10 pigeons,Can't decide,100 people,"[""10 pigeons"",""Can't decide"",""100 people""]",100 people vs 10 pigeons,100 people,human,1,0,1,NA,NA,/Users/martincz/GitHub/COGS119/group_wi26_species_choices/analysis/../data/raw_data/p1w5ffoodro_1772141009154.csv,2,3,0,3,3,3,3,3,1,"something like the trolley problem, asking abour morality",1,18 to 24,Male,Fluent,Yes,Omnivore,FALSE
html-button-response,60,28,107598,p1w5ffoodro,You,goose,1428,"On one boat there is <b>1 person</b> and the other boat there is <b>1 pigeon</b>.
                 Will <b>You</b> save...",2,main_choice,pigeon,1,1,1 person,1 pigeon,TRUE,B,A,1 pigeon,Can't decide,1 person,"[""1 pigeon"",""Can't decide"",""1 person""]",1 person vs 1 pigeon,1 person,human,1,0,1,NA,NA,/Users/martincz/GitHub/COGS119/group_wi26_species_choices/analysis/../data/raw_data/p1w5ffoodro_1772141009154.csv,2,3,0,3,3,3,3,3,1,"something like the trolley problem, asking abour morality",1,18 to 24,Male,Fluent,Yes,Omnivore,FALSE
html-button-response,62,29,109248,p1w5ffoodro,You,goose,1144,"On one boat there is <b>100 people</b> and the other boat there is <b>10 pigs</b>.
                 Will <b>You</b> save...",2,main_choice,pig,100,10,100 people,10 pigs,TRUE,B,A,10 pigs,Can't decide,100 people,"[""10 pigs"",""Can't decide"",""100 people""]",100 people vs 10 pigs,100 people,human,1,0,1,NA,NA,/Users/martincz/GitHub/COGS119/group_wi26_species_choices/analysis/../data/raw_data/p1w5ffoodro_1772141009154.csv,2,3,0,3,3,3,3,3,1,"something like the trolley problem, asking abour morality",1,18 to 24,Male,Fluent,Yes,Omnivore,FALSE
html-button-response,64,30,110831,p1w5ffoodro,You,goose,1076,"On one boat there is <b>1 person</b> and the other boat there is <b>10 dogs</b>.
                 Will <b>You</b> save...",2,main_choice,dog,1,10,1 person,10 dogs,TRUE,B,A,10 dogs,Can't decide,1 person,"[""10 dogs"",""Can't decide"",""1 person""]",1 person vs 10 dogs,1 person,human,1,0,1,NA,NA,/Users/martincz/GitHub/COGS119/group_wi26_species_choices/analysis/../data/raw_data/p1w5ffoodro_1772141009154.csv,2,3,0,3,3,3,3,3,1,"something like the trolley problem, asking abour morality",1,18 to 24,Male,Fluent,Yes,Omnivore,FALSE
html-button-response,66,31,112464,p1w5ffoodro,You,goose,1127,"On one boat there is <b>1 person</b> and the other boat there is <b>1 bunny</b>.
                 Will <b>You</b> save...",0,main_choice,bunny,1,1,1 person,1 bunny,FALSE,A,B,1 person,Can't decide,1 bunny,"[""1 person"",""Can't decide"",""1 bunny""]",1 person vs 1 bunny,1 person,human,1,0,1,NA,NA,/Users/martincz/GitHub/COGS119/group_wi26_species_choices/analysis/../data/raw_data/p1w5ffoodro_1772141009154.csv,2,3,0,3,3,3,3,3,1,"something like the trolley problem, asking abour morality",1,18 to 24,Male,Fluent,Yes,Omnivore,FALSE
html-button-response,68,32,114698,p1w5ffoodro,You,goose,1729,"On one boat there is <b>10 people</b> and the other boat there is <b>100 dogs</b>.
                 Will <b>You</b> save...",0,main_choice,dog,10,100,10 people,100 dogs,TRUE,B,A,100 dogs,Can't decide,10 people,"[""100 dogs"",""Can't decide"",""10 people""]",10 people vs 100 dogs,100 dogs,animal,0,1,0,NA,NA,/Users/martincz/GitHub/COGS119/group_wi26_species_choices/analysis/../data/raw_data/p1w5ffoodro_1772141009154.csv,2,3,0,3,3,3,3,3,1,"something like the trolley problem, asking abour morality",1,18 to 24,Male,Fluent,Yes,Omnivore,FALSE
html-button-response,70,33,116682,p1w5ffoodro,You,goose,1478,"On one boat there is <b>10 people</b> and the other boat there is <b>100 cats</b>.
                 Will <b>You</b> save...",2,main_choice,cat,10,100,10 people,100 cats,FALSE,A,B,10 people,Can't decide,100 cats,"[""10 people"",""Can't decide"",""100 cats""]",10 people vs 100 cats,100 cats,animal,0,1,0,NA,NA,/Users/martincz/GitHub/COGS119/group_wi26_species_choices/analysis/../data/raw_data/p1w5ffoodro_1772141009154.csv,2,3,0,3,3,3,3,3,1,"something like the trolley problem, asking abour morality",1,18 to 24,Male,Fluent,Yes,Omnivore,FALSE
html-button-response,72,34,118414,p1w5ffoodro,You,goose,1225,"On one boat there is <b>1 person</b> and the other boat there is <b>100 bunnies</b>.
                 Will <b>You</b> save...",0,main_choice,bunny,1,100,1 person,100 bunnies,FALSE,A,B,1 person,Can't decide,100 bunnies,"[""1 person"",""Can't decide"",""100 bunnies""]",1 person vs 100 bunnies,1 person,human,1,0,1,NA,NA,/Users/martincz/GitHub/COGS119/group_wi26_species_choices/analysis/../data/raw_data/p1w5ffoodro_1772141009154.csv,2,3,0,3,3,3,3,3,1,"something like the trolley problem, asking abour morality",1,18 to 24,Male,Fluent,Yes,Omnivore,FALSE
html-button-response,74,35,120647,p1w5ffoodro,You,goose,1729,"On one boat there is <b>100 people</b> and the other boat there is <b>1 cat</b>.
                 Will <b>You</b> save...",0,main_choice,cat,100,1,100 people,1 cat,FALSE,A,B,100 people,Can't decide,1 cat,"[""100 people"",""Can't decide"",""1 cat""]",100 people vs 1 cat,100 people,human,1,0,1,NA,NA,/Users/martincz/GitHub/COGS119/group_wi26_species_choices/analysis/../data/raw_data/p1w5ffoodro_1772141009154.csv,2,3,0,3,3,3,3,3,1,"something like the trolley problem, asking abour morality",1,18 to 24,Male,Fluent,Yes,Omnivore,FALSE
html-button-response,76,36,122196,p1w5ffoodro,You,goose,1044,"On one boat there is <b>100 people</b> and the other boat there is <b>10 clams</b>.
                 Will <b>You</b> save...",2,main_choice,clam,100,10,100 people,10 clams,TRUE,B,A,10 clams,Can't decide,100 people,"[""10 clams"",""Can't decide"",""100 people""]",100 people vs 10 clams,100 people,human,1,0,1,NA,NA,/Users/martincz/GitHub/COGS119/group_wi26_species_choices/analysis/../data/raw_data/p1w5ffoodro_1772141009154.csv,2,3,0,3,3,3,3,3,1,"something like the trolley problem, asking abour morality",1,18 to 24,Male,Fluent,Yes,Omnivore,FALSE
html-button-response,78,37,124231,p1w5ffoodro,You,goose,1529,"On one boat there is <b>1 person</b> and the other boat there is <b>100 pigs</b>.
                 Will <b>You</b> save...",2,main_choice,pig,1,100,1 person,100 pigs,TRUE,B,A,100 pigs,Can't decide,1 person,"[""100 pigs"",""Can't decide"",""1 person""]",1 person vs 100 pigs,1 person,human,1,0,1,NA,NA,/Users/martincz/GitHub/COGS119/group_wi26_species_choices/analysis/../data/raw_data/p1w5ffoodro_1772141009154.csv,2,3,0,3,3,3,3,3,1,"something like the trolley problem, asking abour morality",1,18 to 24,Male,Fluent,Yes,Omnivore,FALSE
html-button-response,80,38,126663,p1w5ffoodro,You,goose,1927,"On one boat there is <b>10 people</b> and the other boat there is <b>100 bunnies</b>.
                 Will <b>You</b> save...",0,main_choice,bunny,10,100,10 people,100 bunnies,FALSE,A,B,10 people,Can't decide,100 bunnies,"[""10 people"",""Can't decide"",""100 bunnies""]",10 people vs 100 bunnies,10 people,human,1,0,1,NA,NA,/Users/martincz/GitHub/COGS119/group_wi26_species_choices/analysis/../data/raw_data/p1w5ffoodro_1772141009154.csv,2,3,0,3,3,3,3,3,1,"something like the trolley problem, asking abour morality",1,18 to 24,Male,Fluent,Yes,Omnivore,FALSE
html-button-response,82,39,128063,p1w5ffoodro,You,goose,895,"On one boat there is <b>10 people</b> and the other boat there is <b>1 pig</b>.
                 Will <b>You</b> save...",0,main_choice,pig,10,1,10 people,1 pig,FALSE,A,B,10 people,Can't decide,1 pig,"[""10 people"",""Can't decide"",""1 pig""]",10 people vs 1 pig,10 people,human,1,0,1,NA,NA,/Users/martincz/GitHub/COGS119/group_wi26_species_choices/analysis/../data/raw_data/p1w5ffoodro_1772141009154.csv,2,3,0,3,3,3,3,3,1,"something like the trolley problem, asking abour morality",1,18 to 24,Male,Fluent,Yes,Omnivore,FALSE
html-button-response,84,40,129830,p1w5ffoodro,You,goose,1265,"On one boat there is <b>1 person</b> and the other boat there is <b>100 dogs</b>.
                 Will <b>You</b> save...",0,main_choice,dog,1,100,1 person,100 dogs,TRUE,B,A,100 dogs,Can't decide,1 person,"[""100 dogs"",""Can't decide"",""1 person""]",1 person vs 100 dogs,100 dogs,animal,0,1,0,NA,NA,/Users/martincz/GitHub/COGS119/group_wi26_species_choices/analysis/../data/raw_data/p1w5ffoodro_1772141009154.csv,2,3,0,3,3,3,3,3,1,"something like the trolley problem, asking abour morality",1,18 to 24,Male,Fluent,Yes,Omnivore,FALSE
html-button-response,86,41,131263,p1w5ffoodro,You,goose,930,"On one boat there is <b>1 person</b> and the other boat there is <b>10 bunnies</b>.
                 Will <b>You</b> save...",2,main_choice,bunny,1,10,1 person,10 bunnies,TRUE,B,A,10 bunnies,Can't decide,1 person,"[""10 bunnies"",""Can't decide"",""1 person""]",1 person vs 10 bunnies,1 person,human,1,0,1,NA,NA,/Users/martincz/GitHub/COGS119/group_wi26_species_choices/analysis/../data/raw_data/p1w5ffoodro_1772141009154.csv,2,3,0,3,3,3,3,3,1,"something like the trolley problem, asking abour morality",1,18 to 24,Male,Fluent,Yes,Omnivore,FALSE
html-button-response,88,42,133181,p1w5ffoodro,You,goose,1413,"On one boat there is <b>10 people</b> and the other boat there is <b>100 pigeons</b>.
                 Will <b>You</b> save...",2,main_choice,pigeon,10,100,10 people,100 pigeons,TRUE,B,A,100 pigeons,Can't decide,10 people,"[""100 pigeons"",""Can't decide"",""10 people""]",10 people vs 100 pigeons,10 people,human,1,0,1,NA,NA,/Users/martincz/GitHub/COGS119/group_wi26_species_choices/analysis/../data/raw_data/p1w5ffoodro_1772141009154.csv,2,3,0,3,3,3,3,3,1,"something like the trolley problem, asking abour morality",1,18 to 24,Male,Fluent,Yes,Omnivore,FALSE
html-button-response,6,1,61994,p2hvktg9aaq,You,deer,5351,"On one boat there is <b>10 people</b> and the other boat there is <b>100 clams</b>.
                 Will <b>You</b> save...",0,main_choice,clam,10,100,10 people,100 clams,FALSE,A,B,10 people,Can't decide,100 clams,"[""10 people"",""Can't decide"",""100 clams""]",10 people vs 100 clams,10 people,human,1,0,1,NA,NA,/Users/martincz/GitHub/COGS119/group_wi26_species_choices/analysis/../data/raw_data/p2hvktg9aaq_1772139518886.csv,3,2,1,3,3,3,3,2,1,I think the experiment was about how fast you can make moral decisions based on the dilemma at hand. ,1,18 to 24,Female,Native / near-native,Yes,Omnivore,FALSE
html-button-response,8,2,65459,p2hvktg9aaq,You,deer,2960,"On one boat there is <b>10 people</b> and the other boat there is <b>1 bunny</b>.
                 Will <b>You</b> save...",2,main_choice,bunny,10,1,10 people,1 bunny,TRUE,B,A,1 bunny,Can't decide,10 people,"[""1 bunny"",""Can't decide"",""10 people""]",10 people vs 1 bunny,10 people,human,1,0,1,NA,NA,/Users/martincz/GitHub/COGS119/group_wi26_species_choices/analysis/../data/raw_data/p2hvktg9aaq_1772139518886.csv,3,2,1,3,3,3,3,2,1,I think the experiment was about how fast you can make moral decisions based on the dilemma at hand. ,1,18 to 24,Female,Native / near-native,Yes,Omnivore,FALSE
html-button-response,10,3,68659,p2hvktg9aaq,You,deer,2694,"On one boat there is <b>1 person</b> and the other boat there is <b>10 pigs</b>.
                 Will <b>You</b> save...",0,main_choice,pig,1,10,1 person,10 pigs,FALSE,A,B,1 person,Can't decide,10 pigs,"[""1 person"",""Can't decide"",""10 pigs""]",1 person vs 10 pigs,1 person,human,1,0,1,NA,NA,/Users/martincz/GitHub/COGS119/group_wi26_species_choices/analysis/../data/raw_data/p2hvktg9aaq_1772139518886.csv,3,2,1,3,3,3,3,2,1,I think the experiment was about how fast you can make moral decisions based on the dilemma at hand. ,1,18 to 24,Female,Native / near-native,Yes,Omnivore,FALSE
html-button-response,12,4,70925,p2hvktg9aaq,You,deer,1760,"On one boat there is <b>1 person</b> and the other boat there is <b>10 clams</b>.
                 Will <b>You</b> save...",2,main_choice,clam,1,10,1 person,10 clams,TRUE,B,A,10 clams,Can't decide,1 person,"[""10 clams"",""Can't decide"",""1 person""]",1 person vs 10 clams,1 person,human,1,0,1,NA,NA,/Users/martincz/GitHub/COGS119/group_wi26_species_choices/analysis/../data/raw_data/p2hvktg9aaq_1772139518886.csv,3,2,1,3,3,3,3,2,1,I think the experiment was about how fast you can make moral decisions based on the dilemma at hand. ,1,18 to 24,Female,Native / near-native,Yes,Omnivore,FALSE
html-button-response,14,5,76176,p2hvktg9aaq,You,deer,4746,"On one boat there is <b>10 people</b> and the other boat there is <b>1 dog</b>.
                 Will <b>You</b> save...",2,main_choice,dog,10,1,10 people,1 dog,TRUE,B,A,1 dog,Can't decide,10 people,"[""1 dog"",""Can't decide"",""10 people""]",10 people vs 1 dog,10 people,human,1,0,1,NA,NA,/Users/martincz/GitHub/COGS119/group_wi26_species_choices/analysis/../data/raw_data/p2hvktg9aaq_1772139518886.csv,3,2,1,3,3,3,3,2,1,I think the experiment was about how fast you can make moral decisions based on the dilemma at hand. ,1,18 to 24,Female,Native / near-native,Yes,Omnivore,FALSE
html-button-response,16,6,79009,p2hvktg9aaq,You,deer,2327,"On one boat there is <b>100 people</b> and the other boat there is <b>10 pigeons</b>.
                 Will <b>You</b> save...",2,main_choice,pigeon,100,10,100 people,10 pigeons,TRUE,B,A,10 pigeons,Can't decide,100 people,"[""10 pigeons"",""Can't decide"",""100 people""]",100 people vs 10 pigeons,100 people,human,1,0,1,NA,NA,/Users/martincz/GitHub/COGS119/group_wi26_species_choices/analysis/../data/raw_data/p2hvktg9aaq_1772139518886.csv,3,2,1,3,3,3,3,2,1,I think the experiment was about how fast you can make moral decisions based on the dilemma at hand. ,1,18 to 24,Female,Native / near-native,Yes,Omnivore,FALSE
html-button-response,18,7,82143,p2hvktg9aaq,You,deer,2629,"On one boat there is <b>1 person</b> and the other boat there is <b>100 pigeons</b>.
                 Will <b>You</b> save...",0,main_choice,pigeon,1,100,1 person,100 pigeons,FALSE,A,B,1 person,Can't decide,100 pigeons,"[""1 person"",""Can't decide"",""100 pigeons""]",1 person vs 100 pigeons,1 person,human,1,0,1,NA,NA,/Users/martincz/GitHub/COGS119/group_wi26_species_choices/analysis/../data/raw_data/p2hvktg9aaq_1772139518886.csv,3,2,1,3,3,3,3,2,1,I think the experiment was about how fast you can make moral decisions based on the dilemma at hand. ,1,18 to 24,Female,Native / near-native,Yes,Omnivore,FALSE
html-button-response,20,8,84958,p2hvktg9aaq,You,deer,2310,"On one boat there is <b>1 person</b> and the other boat there is <b>10 bunnies</b>.
                 Will <b>You</b> save...",2,main_choice,bunny,1,10,1 person,10 bunnies,TRUE,B,A,10 bunnies,Can't decide,1 person,"[""10 bunnies"",""Can't decide"",""1 person""]",1 person vs 10 bunnies,1 person,human,1,0,1,NA,NA,/Users/martincz/GitHub/COGS119/group_wi26_species_choices/analysis/../data/raw_data/p2hvktg9aaq_1772139518886.csv,3,2,1,3,3,3,3,2,1,I think the experiment was about how fast you can make moral decisions based on the dilemma at hand. ,1,18 to 24,Female,Native / near-native,Yes,Omnivore,FALSE
html-button-response,22,9,87492,p2hvktg9aaq,You,deer,2029,"On one boat there is <b>1 person</b> and the other boat there is <b>10 pigeons</b>.
                 Will <b>You</b> save...",0,main_choice,pigeon,1,10,1 person,10 pigeons,FALSE,A,B,1 person,Can't decide,10 pigeons,"[""1 person"",""Can't decide"",""10 pigeons""]",1 person vs 10 pigeons,1 person,human,1,0,1,NA,NA,/Users/martincz/GitHub/COGS119/group_wi26_species_choices/analysis/../data/raw_data/p2hvktg9aaq_1772139518886.csv,3,2,1,3,3,3,3,2,1,I think the experiment was about how fast you can make moral decisions based on the dilemma at hand. ,1,18 to 24,Female,Native / near-native,Yes,Omnivore,FALSE
html-button-response,24,10,89708,p2hvktg9aaq,You,deer,1711,"On one boat there is <b>10 people</b> and the other boat there is <b>1 cat</b>.
                 Will <b>You</b> save...",2,main_choice,cat,10,1,10 people,1 cat,TRUE,B,A,1 cat,Can't decide,10 people,"[""1 cat"",""Can't decide"",""10 people""]",10 people vs 1 cat,10 people,human,1,0,1,NA,NA,/Users/martincz/GitHub/COGS119/group_wi26_species_choices/analysis/../data/raw_data/p2hvktg9aaq_1772139518886.csv,3,2,1,3,3,3,3,2,1,I think the experiment was about how fast you can make moral decisions based on the dilemma at hand. ,1,18 to 24,Female,Native / near-native,Yes,Omnivore,FALSE
html-button-response,26,11,91959,p2hvktg9aaq,You,deer,1746,"On one boat there is <b>10 people</b> and the other boat there is <b>100 pigeons</b>.
                 Will <b>You</b> save...",2,main_choice,pigeon,10,100,10 people,100 pigeons,TRUE,B,A,100 pigeons,Can't decide,10 people,"[""100 pigeons"",""Can't decide"",""10 people""]",10 people vs 100 pigeons,10 people,human,1,0,1,NA,NA,/Users/martincz/GitHub/COGS119/group_wi26_species_choices/analysis/../data/raw_data/p2hvktg9aaq_1772139518886.csv,3,2,1,3,3,3,3,2,1,I think the experiment was about how fast you can make moral decisions based on the dilemma at hand. ,1,18 to 24,Female,Native / near-native,Yes,Omnivore,FALSE
html-button-response,28,12,96658,p2hvktg9aaq,You,deer,4195,"On one boat there is <b>1 person</b> and the other boat there is <b>1 dog</b>.
                 Will <b>You</b> save...",1,main_choice,dog,1,1,1 person,1 dog,TRUE,B,A,1 dog,Can't decide,1 person,"[""1 dog"",""Can't decide"",""1 person""]",1 person vs 1 dog,Can't decide,neutral,0,0,0,NA,NA,/Users/martincz/GitHub/COGS119/group_wi26_species_choices/analysis/../data/raw_data/p2hvktg9aaq_1772139518886.csv,3,2,1,3,3,3,3,2,1,I think the experiment was about how fast you can make moral decisions based on the dilemma at hand. ,1,18 to 24,Female,Native / near-native,Yes,Omnivore,FALSE
html-button-response,30,13,99310,p2hvktg9aaq,You,deer,2147,"On one boat there is <b>100 people</b> and the other boat there is <b>10 dogs</b>.
                 Will <b>You</b> save...",2,main_choice,dog,100,10,100 people,10 dogs,TRUE,B,A,10 dogs,Can't decide,100 people,"[""10 dogs"",""Can't decide"",""100 people""]",100 people vs 10 dogs,100 people,human,1,0,1,NA,NA,/Users/martincz/GitHub/COGS119/group_wi26_species_choices/analysis/../data/raw_data/p2hvktg9aaq_1772139518886.csv,3,2,1,3,3,3,3,2,1,I think the experiment was about how fast you can make moral decisions based on the dilemma at hand. ,1,18 to 24,Female,Native / near-native,Yes,Omnivore,FALSE
html-button-response,32,14,101008,p2hvktg9aaq,You,deer,1193,"On one boat there is <b>100 people</b> and the other boat there is <b>10 clams</b>.
                 Will <b>You</b> save...",2,main_choice,clam,100,10,100 people,10 clams,TRUE,B,A,10 clams,Can't decide,100 people,"[""10 clams"",""Can't decide"",""100 people""]",100 people vs 10 clams,100 people,human,1,0,1,NA,NA,/Users/martincz/GitHub/COGS119/group_wi26_species_choices/analysis/../data/raw_data/p2hvktg9aaq_1772139518886.csv,3,2,1,3,3,3,3,2,1,I think the experiment was about how fast you can make moral decisions based on the dilemma at hand. ,1,18 to 24,Female,Native / near-native,Yes,Omnivore,FALSE
html-button-response,34,15,107226,p2hvktg9aaq,You,deer,5713,"On one boat there is <b>10 people</b> and the other boat there is <b>100 cats</b>.
                 Will <b>You</b> save...",2,main_choice,cat,10,100,10 people,100 cats,TRUE,B,A,100 cats,Can't decide,10 people,"[""100 cats"",""Can't decide"",""10 people""]",10 people vs 100 cats,10 people,human,1,0,1,NA,NA,/Users/martincz/GitHub/COGS119/group_wi26_species_choices/analysis/../data/raw_data/p2hvktg9aaq_1772139518886.csv,3,2,1,3,3,3,3,2,1,I think the experiment was about how fast you can make moral decisions based on the dilemma at hand. ,1,18 to 24,Female,Native / near-native,Yes,Omnivore,FALSE
html-button-response,36,16,111026,p2hvktg9aaq,You,deer,3295,"On one boat there is <b>1 person</b> and the other boat there is <b>1 clam</b>.
                 Will <b>You</b> save...",2,main_choice,clam,1,1,1 person,1 clam,TRUE,B,A,1 clam,Can't decide,1 person,"[""1 clam"",""Can't decide"",""1 person""]",1 person vs 1 clam,1 person,human,1,0,1,NA,NA,/Users/martincz/GitHub/COGS119/group_wi26_species_choices/analysis/../data/raw_data/p2hvktg9aaq_1772139518886.csv,3,2,1,3,3,3,3,2,1,I think the experiment was about how fast you can make moral decisions based on the dilemma at hand. ,1,18 to 24,Female,Native / near-native,Yes,Omnivore,FALSE
html-button-response,38,17,113025,p2hvktg9aaq,You,deer,1494,"On one boat there is <b>1 person</b> and the other boat there is <b>100 pigs</b>.
                 Will <b>You</b> save...",0,main_choice,pig,1,100,1 person,100 pigs,FALSE,A,B,1 person,Can't decide,100 pigs,"[""1 person"",""Can't decide"",""100 pigs""]",1 person vs 100 pigs,1 person,human,1,0,1,NA,NA,/Users/martincz/GitHub/COGS119/group_wi26_species_choices/analysis/../data/raw_data/p2hvktg9aaq_1772139518886.csv,3,2,1,3,3,3,3,2,1,I think the experiment was about how fast you can make moral decisions based on the dilemma at hand. ,1,18 to 24,Female,Native / near-native,Yes,Omnivore,FALSE
html-button-response,40,18,115375,p2hvktg9aaq,You,deer,1846,"On one boat there is <b>1 person</b> and the other boat there is <b>100 cats</b>.
                 Will <b>You</b> save...",2,main_choice,cat,1,100,1 person,100 cats,TRUE,B,A,100 cats,Can't decide,1 person,"[""100 cats"",""Can't decide"",""1 person""]",1 person vs 100 cats,1 person,human,1,0,1,NA,NA,/Users/martincz/GitHub/COGS119/group_wi26_species_choices/analysis/../data/raw_data/p2hvktg9aaq_1772139518886.csv,3,2,1,3,3,3,3,2,1,I think the experiment was about how fast you can make moral decisions based on the dilemma at hand. ,1,18 to 24,Female,Native / near-native,Yes,Omnivore,FALSE
html-button-response,42,19,118625,p2hvktg9aaq,You,deer,2745,"On one boat there is <b>1 person</b> and the other boat there is <b>100 dogs</b>.
                 Will <b>You</b> save...",1,main_choice,dog,1,100,1 person,100 dogs,FALSE,A,B,1 person,Can't decide,100 dogs,"[""1 person"",""Can't decide"",""100 dogs""]",1 person vs 100 dogs,Can't decide,neutral,0,0,0,NA,NA,/Users/martincz/GitHub/COGS119/group_wi26_species_choices/analysis/../data/raw_data/p2hvktg9aaq_1772139518886.csv,3,2,1,3,3,3,3,2,1,I think the experiment was about how fast you can make moral decisions based on the dilemma at hand. ,1,18 to 24,Female,Native / near-native,Yes,Omnivore,FALSE
html-button-response,44,20,120960,p2hvktg9aaq,You,deer,1830,"On one boat there is <b>100 people</b> and the other boat there is <b>1 bunny</b>.
                 Will <b>You</b> save...",0,main_choice,bunny,100,1,100 people,1 bunny,FALSE,A,B,100 people,Can't decide,1 bunny,"[""100 people"",""Can't decide"",""1 bunny""]",100 people vs 1 bunny,100 people,human,1,0,1,NA,NA,/Users/martincz/GitHub/COGS119/group_wi26_species_choices/analysis/../data/raw_data/p2hvktg9aaq_1772139518886.csv,3,2,1,3,3,3,3,2,1,I think the experiment was about how fast you can make moral decisions based on the dilemma at hand. ,1,18 to 24,Female,Native / near-native,Yes,Omnivore,FALSE
html-button-response,46,21,122625,p2hvktg9aaq,You,deer,1160,"On one boat there is <b>10 people</b> and the other boat there is <b>1 clam</b>.
                 Will <b>You</b> save...",0,main_choice,clam,10,1,10 people,1 clam,FALSE,A,B,10 people,Can't decide,1 clam,"[""10 people"",""Can't decide"",""1 clam""]",10 people vs 1 clam,10 people,human,1,0,1,NA,NA,/Users/martincz/GitHub/COGS119/group_wi26_species_choices/analysis/../data/raw_data/p2hvktg9aaq_1772139518886.csv,3,2,1,3,3,3,3,2,1,I think the experiment was about how fast you can make moral decisions based on the dilemma at hand. ,1,18 to 24,Female,Native / near-native,Yes,Omnivore,FALSE
html-button-response,48,22,124326,p2hvktg9aaq,You,deer,1197,"On one boat there is <b>10 people</b> and the other boat there is <b>1 pigeon</b>.
                 Will <b>You</b> save...",2,main_choice,pigeon,10,1,10 people,1 pigeon,TRUE,B,A,1 pigeon,Can't decide,10 people,"[""1 pigeon"",""Can't decide"",""10 people""]",10 people vs 1 pigeon,10 people,human,1,0,1,NA,NA,/Users/martincz/GitHub/COGS119/group_wi26_species_choices/analysis/../data/raw_data/p2hvktg9aaq_1772139518886.csv,3,2,1,3,3,3,3,2,1,I think the experiment was about how fast you can make moral decisions based on the dilemma at hand. ,1,18 to 24,Female,Native / near-native,Yes,Omnivore,FALSE
html-button-response,50,23,127075,p2hvktg9aaq,You,deer,2245,"On one boat there is <b>1 person</b> and the other boat there is <b>10 cats</b>.
                 Will <b>You</b> save...",1,main_choice,cat,1,10,1 person,10 cats,FALSE,A,B,1 person,Can't decide,10 cats,"[""1 person"",""Can't decide"",""10 cats""]",1 person vs 10 cats,Can't decide,neutral,0,0,0,NA,NA,/Users/martincz/GitHub/COGS119/group_wi26_species_choices/analysis/../data/raw_data/p2hvktg9aaq_1772139518886.csv,3,2,1,3,3,3,3,2,1,I think the experiment was about how fast you can make moral decisions based on the dilemma at hand. ,1,18 to 24,Female,Native / near-native,Yes,Omnivore,FALSE
html-button-response,52,24,129226,p2hvktg9aaq,You,deer,1646,"On one boat there is <b>10 people</b> and the other boat there is <b>1 pig</b>.
                 Will <b>You</b> save...",0,main_choice,pig,10,1,10 people,1 pig,FALSE,A,B,10 people,Can't decide,1 pig,"[""10 people"",""Can't decide"",""1 pig""]",10 people vs 1 pig,10 people,human,1,0,1,NA,NA,/Users/martincz/GitHub/COGS119/group_wi26_species_choices/analysis/../data/raw_data/p2hvktg9aaq_1772139518886.csv,3,2,1,3,3,3,3,2,1,I think the experiment was about how fast you can make moral decisions based on the dilemma at hand. ,1,18 to 24,Female,Native / near-native,Yes,Omnivore,FALSE
html-button-response,54,25,131310,p2hvktg9aaq,You,deer,1578,"On one boat there is <b>10 people</b> and the other boat there is <b>100 pigs</b>.
                 Will <b>You</b> save...",0,main_choice,pig,10,100,10 people,100 pigs,FALSE,A,B,10 people,Can't decide,100 pigs,"[""10 people"",""Can't decide"",""100 pigs""]",10 people vs 100 pigs,10 people,human,1,0,1,NA,NA,/Users/martincz/GitHub/COGS119/group_wi26_species_choices/analysis/../data/raw_data/p2hvktg9aaq_1772139518886.csv,3,2,1,3,3,3,3,2,1,I think the experiment was about how fast you can make moral decisions based on the dilemma at hand. ,1,18 to 24,Female,Native / near-native,Yes,Omnivore,FALSE
html-button-response,56,26,133159,p2hvktg9aaq,You,deer,1346,"On one boat there is <b>100 people</b> and the other boat there is <b>1 pigeon</b>.
                 Will <b>You</b> save...",0,main_choice,pigeon,100,1,100 people,1 pigeon,FALSE,A,B,100 people,Can't decide,1 pigeon,"[""100 people"",""Can't decide"",""1 pigeon""]",100 people vs 1 pigeon,100 people,human,1,0,1,NA,NA,/Users/martincz/GitHub/COGS119/group_wi26_species_choices/analysis/../data/raw_data/p2hvktg9aaq_1772139518886.csv,3,2,1,3,3,3,3,2,1,I think the experiment was about how fast you can make moral decisions based on the dilemma at hand. ,1,18 to 24,Female,Native / near-native,Yes,Omnivore,FALSE
html-button-response,58,27,135359,p2hvktg9aaq,You,deer,1695,"On one boat there is <b>100 people</b> and the other boat there is <b>10 bunnies</b>.
                 Will <b>You</b> save...",2,main_choice,bunny,100,10,100 people,10 bunnies,TRUE,B,A,10 bunnies,Can't decide,100 people,"[""10 bunnies"",""Can't decide"",""100 people""]",100 people vs 10 bunnies,100 people,human,1,0,1,NA,NA,/Users/martincz/GitHub/COGS119/group_wi26_species_choices/analysis/../data/raw_data/p2hvktg9aaq_1772139518886.csv,3,2,1,3,3,3,3,2,1,I think the experiment was about how fast you can make moral decisions based on the dilemma at hand. ,1,18 to 24,Female,Native / near-native,Yes,Omnivore,FALSE
html-button-response,60,28,142810,p2hvktg9aaq,You,deer,6946,"On one boat there is <b>1 person</b> and the other boat there is <b>1 cat</b>.
                 Will <b>You</b> save...",1,main_choice,cat,1,1,1 person,1 cat,FALSE,A,B,1 person,Can't decide,1 cat,"[""1 person"",""Can't decide"",""1 cat""]",1 person vs 1 cat,Can't decide,neutral,0,0,0,NA,NA,/Users/martincz/GitHub/COGS119/group_wi26_species_choices/analysis/../data/raw_data/p2hvktg9aaq_1772139518886.csv,3,2,1,3,3,3,3,2,1,I think the experiment was about how fast you can make moral decisions based on the dilemma at hand. ,1,18 to 24,Female,Native / near-native,Yes,Omnivore,FALSE
html-button-response,62,29,145441,p2hvktg9aaq,You,deer,2127,"On one boat there is <b>100 people</b> and the other boat there is <b>1 dog</b>.
                 Will <b>You</b> save...",2,main_choice,dog,100,1,100 people,1 dog,TRUE,B,A,1 dog,Can't decide,100 people,"[""1 dog"",""Can't decide"",""100 people""]",100 people vs 1 dog,100 people,human,1,0,1,NA,NA,/Users/martincz/GitHub/COGS119/group_wi26_species_choices/analysis/../data/raw_data/p2hvktg9aaq_1772139518886.csv,3,2,1,3,3,3,3,2,1,I think the experiment was about how fast you can make moral decisions based on the dilemma at hand. ,1,18 to 24,Female,Native / near-native,Yes,Omnivore,FALSE
html-button-response,64,30,148808,p2hvktg9aaq,You,deer,2863,"On one boat there is <b>1 person</b> and the other boat there is <b>100 bunnies</b>.
                 Will <b>You</b> save...",1,main_choice,bunny,1,100,1 person,100 bunnies,FALSE,A,B,1 person,Can't decide,100 bunnies,"[""1 person"",""Can't decide"",""100 bunnies""]",1 person vs 100 bunnies,Can't decide,neutral,0,0,0,NA,NA,/Users/martincz/GitHub/COGS119/group_wi26_species_choices/analysis/../data/raw_data/p2hvktg9aaq_1772139518886.csv,3,2,1,3,3,3,3,2,1,I think the experiment was about how fast you can make moral decisions based on the dilemma at hand. ,1,18 to 24,Female,Native / near-native,Yes,Omnivore,FALSE
html-button-response,66,31,150677,p2hvktg9aaq,You,deer,1364,"On one boat there is <b>10 people</b> and the other boat there is <b>100 bunnies</b>.
                 Will <b>You</b> save...",0,main_choice,bunny,10,100,10 people,100 bunnies,FALSE,A,B,10 people,Can't decide,100 bunnies,"[""10 people"",""Can't decide"",""100 bunnies""]",10 people vs 100 bunnies,10 people,human,1,0,1,NA,NA,/Users/martincz/GitHub/COGS119/group_wi26_species_choices/analysis/../data/raw_data/p2hvktg9aaq_1772139518886.csv,3,2,1,3,3,3,3,2,1,I think the experiment was about how fast you can make moral decisions based on the dilemma at hand. ,1,18 to 24,Female,Native / near-native,Yes,Omnivore,FALSE
html-button-response,68,32,153926,p2hvktg9aaq,You,deer,2744,"On one boat there is <b>100 people</b> and the other boat there is <b>10 pigs</b>.
                 Will <b>You</b> save...",0,main_choice,pig,100,10,100 people,10 pigs,FALSE,A,B,100 people,Can't decide,10 pigs,"[""100 people"",""Can't decide"",""10 pigs""]",100 people vs 10 pigs,100 people,human,1,0,1,NA,NA,/Users/martincz/GitHub/COGS119/group_wi26_species_choices/analysis/../data/raw_data/p2hvktg9aaq_1772139518886.csv,3,2,1,3,3,3,3,2,1,I think the experiment was about how fast you can make moral decisions based on the dilemma at hand. ,1,18 to 24,Female,Native / near-native,Yes,Omnivore,FALSE
html-button-response,70,33,155559,p2hvktg9aaq,You,deer,1128,"On one boat there is <b>100 people</b> and the other boat there is <b>1 pig</b>.
                 Will <b>You</b> save...",0,main_choice,pig,100,1,100 people,1 pig,FALSE,A,B,100 people,Can't decide,1 pig,"[""100 people"",""Can't decide"",""1 pig""]",100 people vs 1 pig,100 people,human,1,0,1,NA,NA,/Users/martincz/GitHub/COGS119/group_wi26_species_choices/analysis/../data/raw_data/p2hvktg9aaq_1772139518886.csv,3,2,1,3,3,3,3,2,1,I think the experiment was about how fast you can make moral decisions based on the dilemma at hand. ,1,18 to 24,Female,Native / near-native,Yes,Omnivore,FALSE
html-button-response,72,34,157710,p2hvktg9aaq,You,deer,1646,"On one boat there is <b>1 person</b> and the other boat there is <b>1 bunny</b>.
                 Will <b>You</b> save...",0,main_choice,bunny,1,1,1 person,1 bunny,FALSE,A,B,1 person,Can't decide,1 bunny,"[""1 person"",""Can't decide"",""1 bunny""]",1 person vs 1 bunny,1 person,human,1,0,1,NA,NA,/Users/martincz/GitHub/COGS119/group_wi26_species_choices/analysis/../data/raw_data/p2hvktg9aaq_1772139518886.csv,3,2,1,3,3,3,3,2,1,I think the experiment was about how fast you can make moral decisions based on the dilemma at hand. ,1,18 to 24,Female,Native / near-native,Yes,Omnivore,FALSE
html-button-response,74,35,159725,p2hvktg9aaq,You,deer,1511,"On one boat there is <b>100 people</b> and the other boat there is <b>1 cat</b>.
                 Will <b>You</b> save...",2,main_choice,cat,100,1,100 people,1 cat,TRUE,B,A,1 cat,Can't decide,100 people,"[""1 cat"",""Can't decide"",""100 people""]",100 people vs 1 cat,100 people,human,1,0,1,NA,NA,/Users/martincz/GitHub/COGS119/group_wi26_species_choices/analysis/../data/raw_data/p2hvktg9aaq_1772139518886.csv,3,2,1,3,3,3,3,2,1,I think the experiment was about how fast you can make moral decisions based on the dilemma at hand. ,1,18 to 24,Female,Native / near-native,Yes,Omnivore,FALSE
