"success","timeout","failed_images","failed_audio","failed_video","trial_type","trial_index","plugin_version","time_elapsed","random_id","participant_id","condition_name","participant","rt","stimulus","response","phase","trial_number","species_key","human_n","species_n","optionA_label","optionB_label","swap","left_is","right_is","left_label","middle_label","right_label","choice_options","comparison_label","chosen_option","choice_kind","saved_human","saved_animal","human_chosen","task","question_order"
"true","false","[]","[]","[]","preload","0","2.0.0","1943","pvnosu31pwe","pvnosu31pwe","You","frog","","","","","","","","","","","","","","","","","","","","","","","","",""
"","","","","","html-keyboard-response","1","2.0.0","12273","pvnosu31pwe","pvnosu31pwe","You","frog","10327","Welcome to the experiment. Press any key to begin."," ","","","","","","","","","","","","","","","","","","","","","",""
"","","","","","survey-text","2","2.0.0","14204","pvnosu31pwe","pvnosu31pwe","You","frog","1925","","{""participant_id"":""frog""}","","","","","","","","","","","","","","","","","","","","","",""
"true","","","","","fullscreen","3","2.0.0","17086","pvnosu31pwe","pvnosu31pwe","You","frog","1876","","","","","","","","","","","","","","","","","","","","","","","",""
"","","","","","html-keyboard-response","4","2.0.0","19448","pvnosu31pwe","pvnosu31pwe","You","frog","2359","<p>You will be asked you some moral questions in which you have to make
                choices. These questions can be hard to decide. There is no right or wrong
                answer - choose whatever you personally think is right. Please
                carefully consider each question.</p>
                <p>Press any key to begin.</p>"," ","","","","","","","","","","","","","","","","","","","","","",""
"","","","","","html-keyboard-response","5","2.0.0","21050","pvnosu31pwe","pvnosu31pwe","You","frog","1600","
      <p>
        Imagine a situation involving two boats, one with humans and one with animals. Both of these boats are sinking.
        Unfortunately, the species on either of these boats are unable to swim. However, You can
        choose one boat to save. Once You chooses a boat, the people or animals on that boat will
        be safe, but the people or animals on the other boat will not survive.
      </p>

      <div style=""display: flex; justify-content: center; align-items: center; gap: 40px; margin-top: 30px;"">
        <img src=""stimuli/boat.png"" style=""width:150px;"">
        <img src=""stimuli/cant decide.png"" style=""width:150px;"">
        <img src=""stimuli/boat.png"" style=""width:150px;"">
      </div>
    "," ","","","","","","","","","","","","","","","","","","","","","",""
"","","","","","html-button-response","6","2.0.0","23801","pvnosu31pwe","pvnosu31pwe","You","frog","2746","On one boat there is <b>1 person</b> and the other boat there is <b>100 cats</b>.
                 Will <b>You</b> save...","0","main_choice","0","cat","1","100","1 person","100 cats","true","B","A","100 cats","Can't decide","1 person","[""100 cats"",""Can't decide"",""1 person""]","1 person vs 100 cats","100 cats","animal","0","1","0","",""
"","","","","","html-keyboard-response","7","2.0.0","24303","pvnosu31pwe","pvnosu31pwe","You","frog","null","<div style=""font-size:40px; opacity:0.6;"">+</div>","null","","","","","","","","","","","","","","","","","","","","","iti",""
"","","","","","html-button-response","8","2.0.0","27066","pvnosu31pwe","pvnosu31pwe","You","frog","2760","On one boat there is <b>100 people</b> and the other boat there is <b>10 pigeons</b>.
                 Will <b>You</b> save...","0","main_choice","1","pigeon","100","10","100 people","10 pigeons","false","A","B","100 people","Can't decide","10 pigeons","[""100 people"",""Can't decide"",""10 pigeons""]","100 people vs 10 pigeons","100 people","human","1","0","1","",""
"","","","","","html-keyboard-response","9","2.0.0","27568","pvnosu31pwe","pvnosu31pwe","You","frog","null","<div style=""font-size:40px; opacity:0.6;"">+</div>","null","","","","","","","","","","","","","","","","","","","","","iti",""
"","","","","","html-button-response","10","2.0.0","29249","pvnosu31pwe","pvnosu31pwe","You","frog","1679","On one boat there is <b>100 people</b> and the other boat there is <b>10 pigs</b>.
                 Will <b>You</b> save...","0","main_choice","2","pig","100","10","100 people","10 pigs","false","A","B","100 people","Can't decide","10 pigs","[""100 people"",""Can't decide"",""10 pigs""]","100 people vs 10 pigs","100 people","human","1","0","1","",""
"","","","","","html-keyboard-response","11","2.0.0","29751","pvnosu31pwe","pvnosu31pwe","You","frog","null","<div style=""font-size:40px; opacity:0.6;"">+</div>","null","","","","","","","","","","","","","","","","","","","","","iti",""
"","","","","","html-button-response","12","2.0.0","36968","pvnosu31pwe","pvnosu31pwe","You","frog","7213","On one boat there is <b>10 people</b> and the other boat there is <b>1 dog</b>.
                 Will <b>You</b> save...","2","main_choice","3","dog","10","1","10 people","1 dog","true","B","A","1 dog","Can't decide","10 people","[""1 dog"",""Can't decide"",""10 people""]","10 people vs 1 dog","10 people","human","1","0","1","",""
"","","","","","html-keyboard-response","13","2.0.0","37471","pvnosu31pwe","pvnosu31pwe","You","frog","null","<div style=""font-size:40px; opacity:0.6;"">+</div>","null","","","","","","","","","","","","","","","","","","","","","iti",""
"","","","","","html-button-response","14","2.0.0","39783","pvnosu31pwe","pvnosu31pwe","You","frog","2309","On one boat there is <b>10 people</b> and the other boat there is <b>1 pig</b>.
                 Will <b>You</b> save...","2","main_choice","4","pig","10","1","10 people","1 pig","true","B","A","1 pig","Can't decide","10 people","[""1 pig"",""Can't decide"",""10 people""]","10 people vs 1 pig","10 people","human","1","0","1","",""
"","","","","","html-keyboard-response","15","2.0.0","40286","pvnosu31pwe","pvnosu31pwe","You","frog","null","<div style=""font-size:40px; opacity:0.6;"">+</div>","null","","","","","","","","","","","","","","","","","","","","","iti",""
"","","","","","html-button-response","16","2.0.0","41317","pvnosu31pwe","pvnosu31pwe","You","frog","1027","On one boat there is <b>1 person</b> and the other boat there is <b>100 bunnies</b>.
                 Will <b>You</b> save...","0","main_choice","5","bunny","1","100","1 person","100 bunnies","true","B","A","100 bunnies","Can't decide","1 person","[""100 bunnies"",""Can't decide"",""1 person""]","1 person vs 100 bunnies","100 bunnies","animal","0","1","0","",""
"","","","","","html-keyboard-response","17","2.0.0","41821","pvnosu31pwe","pvnosu31pwe","You","frog","null","<div style=""font-size:40px; opacity:0.6;"">+</div>","null","","","","","","","","","","","","","","","","","","","","","iti",""
"","","","","","html-button-response","18","2.0.0","42884","pvnosu31pwe","pvnosu31pwe","You","frog","1060","On one boat there is <b>100 people</b> and the other boat there is <b>10 clams</b>.
                 Will <b>You</b> save...","2","main_choice","6","clam","100","10","100 people","10 clams","true","B","A","10 clams","Can't decide","100 people","[""10 clams"",""Can't decide"",""100 people""]","100 people vs 10 clams","100 people","human","1","0","1","",""
"","","","","","html-keyboard-response","19","2.0.0","43387","pvnosu31pwe","pvnosu31pwe","You","frog","null","<div style=""font-size:40px; opacity:0.6;"">+</div>","null","","","","","","","","","","","","","","","","","","","","","iti",""
"","","","","","html-button-response","20","2.0.0","46067","pvnosu31pwe","pvnosu31pwe","You","frog","2677","On one boat there is <b>1 person</b> and the other boat there is <b>1 clam</b>.
                 Will <b>You</b> save...","0","main_choice","7","clam","1","1","1 person","1 clam","false","A","B","1 person","Can't decide","1 clam","[""1 person"",""Can't decide"",""1 clam""]","1 person vs 1 clam","1 person","human","1","0","1","",""
"","","","","","html-keyboard-response","21","2.0.0","46569","pvnosu31pwe","pvnosu31pwe","You","frog","null","<div style=""font-size:40px; opacity:0.6;"">+</div>","null","","","","","","","","","","","","","","","","","","","","","iti",""
"","","","","","html-button-response","22","2.0.0","47767","pvnosu31pwe","pvnosu31pwe","You","frog","1196","On one boat there is <b>1 person</b> and the other boat there is <b>10 dogs</b>.
                 Will <b>You</b> save...","0","main_choice","8","dog","1","10","1 person","10 dogs","true","B","A","10 dogs","Can't decide","1 person","[""10 dogs"",""Can't decide"",""1 person""]","1 person vs 10 dogs","10 dogs","animal","0","1","0","",""
"","","","","","html-keyboard-response","23","2.0.0","48270","pvnosu31pwe","pvnosu31pwe","You","frog","null","<div style=""font-size:40px; opacity:0.6;"">+</div>","null","","","","","","","","","","","","","","","","","","","","","iti",""
"","","","","","html-button-response","24","2.0.0","49318","pvnosu31pwe","pvnosu31pwe","You","frog","1044","On one boat there is <b>100 people</b> and the other boat there is <b>1 clam</b>.
                 Will <b>You</b> save...","2","main_choice","9","clam","100","1","100 people","1 clam","true","B","A","1 clam","Can't decide","100 people","[""1 clam"",""Can't decide"",""100 people""]","100 people vs 1 clam","100 people","human","1","0","1","",""
"","","","","","html-keyboard-response","25","2.0.0","49820","pvnosu31pwe","pvnosu31pwe","You","frog","null","<div style=""font-size:40px; opacity:0.6;"">+</div>","null","","","","","","","","","","","","","","","","","","","","","iti",""
"","","","","","html-button-response","26","2.0.0","51117","pvnosu31pwe","pvnosu31pwe","You","frog","1293","On one boat there is <b>1 person</b> and the other boat there is <b>10 clams</b>.
                 Will <b>You</b> save...","2","main_choice","10","clam","1","10","1 person","10 clams","true","B","A","10 clams","Can't decide","1 person","[""10 clams"",""Can't decide"",""1 person""]","1 person vs 10 clams","1 person","human","1","0","1","",""
"","","","","","html-keyboard-response","27","2.0.0","51620","pvnosu31pwe","pvnosu31pwe","You","frog","null","<div style=""font-size:40px; opacity:0.6;"">+</div>","null","","","","","","","","","","","","","","","","","","","","","iti",""
"","","","","","html-button-response","28","2.0.0","53300","pvnosu31pwe","pvnosu31pwe","You","frog","1677","On one boat there is <b>1 person</b> and the other boat there is <b>10 pigs</b>.
                 Will <b>You</b> save...","0","main_choice","11","pig","1","10","1 person","10 pigs","true","B","A","10 pigs","Can't decide","1 person","[""10 pigs"",""Can't decide"",""1 person""]","1 person vs 10 pigs","10 pigs","animal","0","1","0","",""
"","","","","","html-keyboard-response","29","2.0.0","53803","pvnosu31pwe","pvnosu31pwe","You","frog","null","<div style=""font-size:40px; opacity:0.6;"">+</div>","null","","","","","","","","","","","","","","","","","","","","","iti",""
"","","","","","html-button-response","30","2.0.0","59867","pvnosu31pwe","pvnosu31pwe","You","frog","6062","On one boat there is <b>1 person</b> and the other boat there is <b>1 dog</b>.
                 Will <b>You</b> save...","1","main_choice","12","dog","1","1","1 person","1 dog","true","B","A","1 dog","Can't decide","1 person","[""1 dog"",""Can't decide"",""1 person""]","1 person vs 1 dog","Can't decide","neutral","0","0","0","",""
"","","","","","html-keyboard-response","31","2.0.0","60370","pvnosu31pwe","pvnosu31pwe","You","frog","null","<div style=""font-size:40px; opacity:0.6;"">+</div>","null","","","","","","","","","","","","","","","","","","","","","iti",""
"","","","","","html-button-response","32","2.0.0","62733","pvnosu31pwe","pvnosu31pwe","You","frog","2360","On one boat there is <b>100 people</b> and the other boat there is <b>10 cats</b>.
                 Will <b>You</b> save...","2","main_choice","13","cat","100","10","100 people","10 cats","true","B","A","10 cats","Can't decide","100 people","[""10 cats"",""Can't decide"",""100 people""]","100 people vs 10 cats","100 people","human","1","0","1","",""
"","","","","","html-keyboard-response","33","2.0.0","63235","pvnosu31pwe","pvnosu31pwe","You","frog","null","<div style=""font-size:40px; opacity:0.6;"">+</div>","null","","","","","","","","","","","","","","","","","","","","","iti",""
"","","","","","html-button-response","34","2.0.0","69601","pvnosu31pwe","pvnosu31pwe","You","frog","6363","On one boat there is <b>1 person</b> and the other boat there is <b>10 pigeons</b>.
                 Will <b>You</b> save...","0","main_choice","14","pigeon","1","10","1 person","10 pigeons","false","A","B","1 person","Can't decide","10 pigeons","[""1 person"",""Can't decide"",""10 pigeons""]","1 person vs 10 pigeons","1 person","human","1","0","1","",""
"","","","","","html-keyboard-response","35","2.0.0","70103","pvnosu31pwe","pvnosu31pwe","You","frog","null","<div style=""font-size:40px; opacity:0.6;"">+</div>","null","","","","","","","","","","","","","","","","","","","","","iti",""
"","","","","","html-button-response","36","2.0.0","75484","pvnosu31pwe","pvnosu31pwe","You","frog","5378","On one boat there is <b>10 people</b> and the other boat there is <b>100 pigeons</b>.
                 Will <b>You</b> save...","2","main_choice","15","pigeon","10","100","10 people","100 pigeons","true","B","A","100 pigeons","Can't decide","10 people","[""100 pigeons"",""Can't decide"",""10 people""]","10 people vs 100 pigeons","10 people","human","1","0","1","",""
"","","","","","html-keyboard-response","37","2.0.0","75987","pvnosu31pwe","pvnosu31pwe","You","frog","null","<div style=""font-size:40px; opacity:0.6;"">+</div>","null","","","","","","","","","","","","","","","","","","","","","iti",""
"","","","","","html-button-response","38","2.0.0","83568","pvnosu31pwe","pvnosu31pwe","You","frog","7578","On one boat there is <b>1 person</b> and the other boat there is <b>10 cats</b>.
                 Will <b>You</b> save...","1","main_choice","16","cat","1","10","1 person","10 cats","true","B","A","10 cats","Can't decide","1 person","[""10 cats"",""Can't decide"",""1 person""]","1 person vs 10 cats","Can't decide","neutral","0","0","0","",""
"","","","","","html-keyboard-response","39","2.0.0","84070","pvnosu31pwe","pvnosu31pwe","You","frog","null","<div style=""font-size:40px; opacity:0.6;"">+</div>","null","","","","","","","","","","","","","","","","","","","","","iti",""
"","","","","","html-button-response","40","2.0.0","85318","pvnosu31pwe","pvnosu31pwe","You","frog","1245","On one boat there is <b>100 people</b> and the other boat there is <b>1 dog</b>.
                 Will <b>You</b> save...","2","main_choice","17","dog","100","1","100 people","1 dog","true","B","A","1 dog","Can't decide","100 people","[""1 dog"",""Can't decide"",""100 people""]","100 people vs 1 dog","100 people","human","1","0","1","",""
"","","","","","html-keyboard-response","41","2.0.0","85820","pvnosu31pwe","pvnosu31pwe","You","frog","null","<div style=""font-size:40px; opacity:0.6;"">+</div>","null","","","","","","","","","","","","","","","","","","","","","iti",""
"","","","","","html-button-response","42","2.0.0","86684","pvnosu31pwe","pvnosu31pwe","You","frog","862","On one boat there is <b>10 people</b> and the other boat there is <b>1 clam</b>.
                 Will <b>You</b> save...","0","main_choice","18","clam","10","1","10 people","1 clam","false","A","B","10 people","Can't decide","1 clam","[""10 people"",""Can't decide"",""1 clam""]","10 people vs 1 clam","10 people","human","1","0","1","",""
"","","","","","html-keyboard-response","43","2.0.0","87187","pvnosu31pwe","pvnosu31pwe","You","frog","null","<div style=""font-size:40px; opacity:0.6;"">+</div>","null","","","","","","","","","","","","","","","","","","","","","iti",""
"","","","","","html-button-response","44","2.0.0","89418","pvnosu31pwe","pvnosu31pwe","You","frog","2228","On one boat there is <b>1 person</b> and the other boat there is <b>1 bunny</b>.
                 Will <b>You</b> save...","2","main_choice","19","bunny","1","1","1 person","1 bunny","true","B","A","1 bunny","Can't decide","1 person","[""1 bunny"",""Can't decide"",""1 person""]","1 person vs 1 bunny","1 person","human","1","0","1","",""
"","","","","","html-keyboard-response","45","2.0.0","89920","pvnosu31pwe","pvnosu31pwe","You","frog","null","<div style=""font-size:40px; opacity:0.6;"">+</div>","null","","","","","","","","","","","","","","","","","","","","","iti",""
"","","","","","html-button-response","46","2.0.0","92018","pvnosu31pwe","pvnosu31pwe","You","frog","2095","On one boat there is <b>10 people</b> and the other boat there is <b>1 cat</b>.
                 Will <b>You</b> save...","2","main_choice","20","cat","10","1","10 people","1 cat","true","B","A","1 cat","Can't decide","10 people","[""1 cat"",""Can't decide"",""10 people""]","10 people vs 1 cat","10 people","human","1","0","1","",""
"","","","","","html-keyboard-response","47","2.0.0","92521","pvnosu31pwe","pvnosu31pwe","You","frog","null","<div style=""font-size:40px; opacity:0.6;"">+</div>","null","","","","","","","","","","","","","","","","","","","","","iti",""
"","","","","","html-button-response","48","2.0.0","93468","pvnosu31pwe","pvnosu31pwe","You","frog","944","On one boat there is <b>10 people</b> and the other boat there is <b>100 clams</b>.
                 Will <b>You</b> save...","2","main_choice","21","clam","10","100","10 people","100 clams","true","B","A","100 clams","Can't decide","10 people","[""100 clams"",""Can't decide"",""10 people""]","10 people vs 100 clams","10 people","human","1","0","1","",""
"","","","","","html-keyboard-response","49","2.0.0","93971","pvnosu31pwe","pvnosu31pwe","You","frog","null","<div style=""font-size:40px; opacity:0.6;"">+</div>","null","","","","","","","","","","","","","","","","","","","","","iti",""
"","","","","","html-button-response","50","2.0.0","94851","pvnosu31pwe","pvnosu31pwe","You","frog","877","On one boat there is <b>10 people</b> and the other boat there is <b>1 bunny</b>.
                 Will <b>You</b> save...","0","main_choice","22","bunny","10","1","10 people","1 bunny","false","A","B","10 people","Can't decide","1 bunny","[""10 people"",""Can't decide"",""1 bunny""]","10 people vs 1 bunny","10 people","human","1","0","1","",""
"","","","","","html-keyboard-response","51","2.0.0","95354","pvnosu31pwe","pvnosu31pwe","You","frog","null","<div style=""font-size:40px; opacity:0.6;"">+</div>","null","","","","","","","","","","","","","","","","","","","","","iti",""
"","","","","","html-button-response","52","2.0.0","96284","pvnosu31pwe","pvnosu31pwe","You","frog","927","On one boat there is <b>100 people</b> and the other boat there is <b>1 bunny</b>.
                 Will <b>You</b> save...","2","main_choice","23","bunny","100","1","100 people","1 bunny","true","B","A","1 bunny","Can't decide","100 people","[""1 bunny"",""Can't decide"",""100 people""]","100 people vs 1 bunny","100 people","human","1","0","1","",""
"","","","","","html-keyboard-response","53","2.0.0","96786","pvnosu31pwe","pvnosu31pwe","You","frog","null","<div style=""font-size:40px; opacity:0.6;"">+</div>","null","","","","","","","","","","","","","","","","","","","","","iti",""
"","","","","","html-button-response","54","2.0.0","101217","pvnosu31pwe","pvnosu31pwe","You","frog","4428","On one boat there is <b>1 person</b> and the other boat there is <b>1 pigeon</b>.
                 Will <b>You</b> save...","1","main_choice","24","pigeon","1","1","1 person","1 pigeon","true","B","A","1 pigeon","Can't decide","1 person","[""1 pigeon"",""Can't decide"",""1 person""]","1 person vs 1 pigeon","Can't decide","neutral","0","0","0","",""
"","","","","","html-keyboard-response","55","2.0.0","101719","pvnosu31pwe","pvnosu31pwe","You","frog","null","<div style=""font-size:40px; opacity:0.6;"">+</div>","null","","","","","","","","","","","","","","","","","","","","","iti",""
"","","","","","html-button-response","56","2.0.0","103518","pvnosu31pwe","pvnosu31pwe","You","frog","1797","On one boat there is <b>100 people</b> and the other boat there is <b>1 cat</b>.
                 Will <b>You</b> save...","1","main_choice","25","cat","100","1","100 people","1 cat","true","B","A","1 cat","Can't decide","100 people","[""1 cat"",""Can't decide"",""100 people""]","100 people vs 1 cat","Can't decide","neutral","0","0","0","",""
"","","","","","html-keyboard-response","57","2.0.0","104021","pvnosu31pwe","pvnosu31pwe","You","frog","null","<div style=""font-size:40px; opacity:0.6;"">+</div>","null","","","","","","","","","","","","","","","","","","","","","iti",""
"","","","","","html-button-response","58","2.0.0","105418","pvnosu31pwe","pvnosu31pwe","You","frog","1394","On one boat there is <b>10 people</b> and the other boat there is <b>1 pigeon</b>.
                 Will <b>You</b> save...","2","main_choice","26","pigeon","10","1","10 people","1 pigeon","true","B","A","1 pigeon","Can't decide","10 people","[""1 pigeon"",""Can't decide"",""10 people""]","10 people vs 1 pigeon","10 people","human","1","0","1","",""
"","","","","","html-keyboard-response","59","2.0.0","105921","pvnosu31pwe","pvnosu31pwe","You","frog","null","<div style=""font-size:40px; opacity:0.6;"">+</div>","null","","","","","","","","","","","","","","","","","","","","","iti",""
"","","","","","html-button-response","60","2.0.0","111836","pvnosu31pwe","pvnosu31pwe","You","frog","5911","On one boat there is <b>1 person</b> and the other boat there is <b>100 dogs</b>.
                 Will <b>You</b> save...","2","main_choice","27","dog","1","100","1 person","100 dogs","false","A","B","1 person","Can't decide","100 dogs","[""1 person"",""Can't decide"",""100 dogs""]","1 person vs 100 dogs","100 dogs","animal","0","1","0","",""
"","","","","","html-keyboard-response","61","2.0.0","112339","pvnosu31pwe","pvnosu31pwe","You","frog","null","<div style=""font-size:40px; opacity:0.6;"">+</div>","null","","","","","","","","","","","","","","","","","","","","","iti",""
"","","","","","html-button-response","62","2.0.0","116152","pvnosu31pwe","pvnosu31pwe","You","frog","3810","On one boat there is <b>1 person</b> and the other boat there is <b>1 cat</b>.
                 Will <b>You</b> save...","1","main_choice","28","cat","1","1","1 person","1 cat","false","A","B","1 person","Can't decide","1 cat","[""1 person"",""Can't decide"",""1 cat""]","1 person vs 1 cat","Can't decide","neutral","0","0","0","",""
"","","","","","html-keyboard-response","63","2.0.0","116655","pvnosu31pwe","pvnosu31pwe","You","frog","null","<div style=""font-size:40px; opacity:0.6;"">+</div>","null","","","","","","","","","","","","","","","","","","","","","iti",""
"","","","","","html-button-response","64","2.0.0","119435","pvnosu31pwe","pvnosu31pwe","You","frog","2777","On one boat there is <b>1 person</b> and the other boat there is <b>100 pigs</b>.
                 Will <b>You</b> save...","0","main_choice","29","pig","1","100","1 person","100 pigs","false","A","B","1 person","Can't decide","100 pigs","[""1 person"",""Can't decide"",""100 pigs""]","1 person vs 100 pigs","1 person","human","1","0","1","",""
"","","","","","html-keyboard-response","65","2.0.0","119938","pvnosu31pwe","pvnosu31pwe","You","frog","null","<div style=""font-size:40px; opacity:0.6;"">+</div>","null","","","","","","","","","","","","","","","","","","","","","iti",""
"","","","","","html-button-response","66","2.0.0","121386","pvnosu31pwe","pvnosu31pwe","You","frog","1445","On one boat there is <b>10 people</b> and the other boat there is <b>100 pigs</b>.
                 Will <b>You</b> save...","2","main_choice","30","pig","10","100","10 people","100 pigs","true","B","A","100 pigs","Can't decide","10 people","[""100 pigs"",""Can't decide"",""10 people""]","10 people vs 100 pigs","10 people","human","1","0","1","",""
"","","","","","html-keyboard-response","67","2.0.0","121889","pvnosu31pwe","pvnosu31pwe","You","frog","null","<div style=""font-size:40px; opacity:0.6;"">+</div>","null","","","","","","","","","","","","","","","","","","","","","iti",""
"","","","","","html-button-response","68","2.0.0","123135","pvnosu31pwe","pvnosu31pwe","You","frog","1243","On one boat there is <b>1 person</b> and the other boat there is <b>10 bunnies</b>.
                 Will <b>You</b> save...","2","main_choice","31","bunny","1","10","1 person","10 bunnies","true","B","A","10 bunnies","Can't decide","1 person","[""10 bunnies"",""Can't decide"",""1 person""]","1 person vs 10 bunnies","1 person","human","1","0","1","",""
"","","","","","html-keyboard-response","69","2.0.0","123637","pvnosu31pwe","pvnosu31pwe","You","frog","null","<div style=""font-size:40px; opacity:0.6;"">+</div>","null","","","","","","","","","","","","","","","","","","","","","iti",""
"","","","","","html-button-response","70","2.0.0","124785","pvnosu31pwe","pvnosu31pwe","You","frog","1145","On one boat there is <b>1 person</b> and the other boat there is <b>1 pig</b>.
                 Will <b>You</b> save...","2","main_choice","32","pig","1","1","1 person","1 pig","true","B","A","1 pig","Can't decide","1 person","[""1 pig"",""Can't decide"",""1 person""]","1 person vs 1 pig","1 person","human","1","0","1","",""
"","","","","","html-keyboard-response","71","2.0.0","125288","pvnosu31pwe","pvnosu31pwe","You","frog","null","<div style=""font-size:40px; opacity:0.6;"">+</div>","null","","","","","","","","","","","","","","","","","","","","","iti",""
"","","","","","html-button-response","72","2.0.0","126702","pvnosu31pwe","pvnosu31pwe","You","frog","1411","On one boat there is <b>10 people</b> and the other boat there is <b>100 dogs</b>.
                 Will <b>You</b> save...","0","main_choice","33","dog","10","100","10 people","100 dogs","true","B","A","100 dogs","Can't decide","10 people","[""100 dogs"",""Can't decide"",""10 people""]","10 people vs 100 dogs","100 dogs","animal","0","1","0","",""
"","","","","","html-keyboard-response","73","2.0.0","127204","pvnosu31pwe","pvnosu31pwe","You","frog","null","<div style=""font-size:40px; opacity:0.6;"">+</div>","null","","","","","","","","","","","","","","","","","","","","","iti",""
"","","","","","html-button-response","74","2.0.0","128718","pvnosu31pwe","pvnosu31pwe","You","frog","1511","On one boat there is <b>100 people</b> and the other boat there is <b>1 pigeon</b>.
                 Will <b>You</b> save...","2","main_choice","34","pigeon","100","1","100 people","1 pigeon","true","B","A","1 pigeon","Can't decide","100 people","[""1 pigeon"",""Can't decide"",""100 people""]","100 people vs 1 pigeon","100 people","human","1","0","1","",""
"","","","","","html-keyboard-response","75","2.0.0","129219","pvnosu31pwe","pvnosu31pwe","You","frog","null","<div style=""font-size:40px; opacity:0.6;"">+</div>","null","","","","","","","","","","","","","","","","","","","","","iti",""
"","","","","","html-button-response","76","2.0.0","130302","pvnosu31pwe","pvnosu31pwe","You","frog","1080","On one boat there is <b>10 people</b> and the other boat there is <b>100 bunnies</b>.
                 Will <b>You</b> save...","2","main_choice","35","bunny","10","100","10 people","100 bunnies","true","B","A","100 bunnies","Can't decide","10 people","[""100 bunnies"",""Can't decide"",""10 people""]","10 people vs 100 bunnies","10 people","human","1","0","1","",""
"","","","","","html-keyboard-response","77","2.0.0","130804","pvnosu31pwe","pvnosu31pwe","You","frog","null","<div style=""font-size:40px; opacity:0.6;"">+</div>","null","","","","","","","","","","","","","","","","","","","","","iti",""
"","","","","","html-button-response","78","2.0.0","134719","pvnosu31pwe","pvnosu31pwe","You","frog","3912","On one boat there is <b>10 people</b> and the other boat there is <b>100 cats</b>.
                 Will <b>You</b> save...","0","main_choice","36","cat","10","100","10 people","100 cats","false","A","B","10 people","Can't decide","100 cats","[""10 people"",""Can't decide"",""100 cats""]","10 people vs 100 cats","10 people","human","1","0","1","",""
"","","","","","html-keyboard-response","79","2.0.0","135222","pvnosu31pwe","pvnosu31pwe","You","frog","null","<div style=""font-size:40px; opacity:0.6;"">+</div>","null","","","","","","","","","","","","","","","","","","","","","iti",""
"","","","","","html-button-response","80","2.0.0","136702","pvnosu31pwe","pvnosu31pwe","You","frog","1477","On one boat there is <b>1 person</b> and the other boat there is <b>100 clams</b>.
                 Will <b>You</b> save...","0","main_choice","37","clam","1","100","1 person","100 clams","false","A","B","1 person","Can't decide","100 clams","[""1 person"",""Can't decide"",""100 clams""]","1 person vs 100 clams","1 person","human","1","0","1","",""
"","","","","","html-keyboard-response","81","2.0.0","137204","pvnosu31pwe","pvnosu31pwe","You","frog","null","<div style=""font-size:40px; opacity:0.6;"">+</div>","null","","","","","","","","","","","","","","","","","","","","","iti",""
"","","","","","html-button-response","82","2.0.0","138102","pvnosu31pwe","pvnosu31pwe","You","frog","895","On one boat there is <b>100 people</b> and the other boat there is <b>10 bunnies</b>.
                 Will <b>You</b> save...","0","main_choice","38","bunny","100","10","100 people","10 bunnies","false","A","B","100 people","Can't decide","10 bunnies","[""100 people"",""Can't decide"",""10 bunnies""]","100 people vs 10 bunnies","100 people","human","1","0","1","",""
"","","","","","html-keyboard-response","83","2.0.0","138604","pvnosu31pwe","pvnosu31pwe","You","frog","null","<div style=""font-size:40px; opacity:0.6;"">+</div>","null","","","","","","","","","","","","","","","","","","","","","iti",""
"","","","","","html-button-response","84","2.0.0","140052","pvnosu31pwe","pvnosu31pwe","You","frog","1445","On one boat there is <b>100 people</b> and the other boat there is <b>10 dogs</b>.
                 Will <b>You</b> save...","2","main_choice","39","dog","100","10","100 people","10 dogs","true","B","A","10 dogs","Can't decide","100 people","[""10 dogs"",""Can't decide"",""100 people""]","100 people vs 10 dogs","100 people","human","1","0","1","",""
"","","","","","html-keyboard-response","85","2.0.0","140554","pvnosu31pwe","pvnosu31pwe","You","frog","null","<div style=""font-size:40px; opacity:0.6;"">+</div>","null","","","","","","","","","","","","","","","","","","","","","iti",""
"","","","","","html-button-response","86","2.0.0","141318","pvnosu31pwe","pvnosu31pwe","You","frog","761","On one boat there is <b>100 people</b> and the other boat there is <b>1 pig</b>.
                 Will <b>You</b> save...","2","main_choice","40","pig","100","1","100 people","1 pig","true","B","A","1 pig","Can't decide","100 people","[""1 pig"",""Can't decide"",""100 people""]","100 people vs 1 pig","100 people","human","1","0","1","",""
"","","","","","html-keyboard-response","87","2.0.0","141820","pvnosu31pwe","pvnosu31pwe","You","frog","null","<div style=""font-size:40px; opacity:0.6;"">+</div>","null","","","","","","","","","","","","","","","","","","","","","iti",""
"","","","","","html-button-response","88","2.0.0","144452","pvnosu31pwe","pvnosu31pwe","You","frog","2629","On one boat there is <b>1 person</b> and the other boat there is <b>100 pigeons</b>.
                 Will <b>You</b> save...","2","main_choice","41","pigeon","1","100","1 person","100 pigeons","false","A","B","1 person","Can't decide","100 pigeons","[""1 person"",""Can't decide"",""100 pigeons""]","1 person vs 100 pigeons","100 pigeons","animal","0","1","0","",""
"","","","","","html-keyboard-response","89","2.0.0","144955","pvnosu31pwe","pvnosu31pwe","You","frog","null","<div style=""font-size:40px; opacity:0.6;"">+</div>","null","","","","","","","","","","","","","","","","","","","","","iti",""
"","","","","","survey-likert","90","2.0.0","153670","pvnosu31pwe","pvnosu31pwe","You","frog","8710","","{""smart_person"":2,""smart_dog"":3,""smart_pig"":2}","","","","","","","","","","","","","","","","","","","","","capacity_smart","[0,1,2]"
"","","","","","survey-likert","91","2.0.0","162287","pvnosu31pwe","pvnosu31pwe","You","frog","8613","","{""pain_person"":3,""pain_dog"":3,""pain_pig"":3}","","","","","","","","","","","","","","","","","","","","","capacity_pain","[0,1,2]"
"","","","","","survey-likert","92","2.0.0","171787","pvnosu31pwe","pvnosu31pwe","You","frog","9497","","{""emotion_person"":2,""emotion_dog"":2,""emotion_pig"":1}","","","","","","","","","","","","","","","","","","","","","capacity_emotion","[0,1,2]"
"","","","","","survey-text","93","2.0.0","177627","pvnosu31pwe","pvnosu31pwe","You","frog","5825","","{""Q0"":""Pretty Good""}","","","","","","","","","","","","","","","","","","","","","hypothesis_check",""
"","","","","","survey-likert","94","2.0.0","182136","pvnosu31pwe","pvnosu31pwe","You","frog","4508","","{""Q0"":1}","","","","","","","","","","","","","","","","","","","","","difficulty_rating","[0]"
"","","","","","survey-text","95","2.0.0","186719","pvnosu31pwe","pvnosu31pwe","You","frog","4579","","{""Q0"":""Nope""}","","","","","","","","","","","","","","","","","","","","","technical_check",""
"","","","","","survey-multi-choice","96","2.0.0","208121","pvnosu31pwe","pvnosu31pwe","You","frog","21399","","{""age_bracket"":""18 to 24"",""gender"":""Female"",""english_proficiency"":""Native / near-native"",""pet_ownership"":""Yes"",""diet"":""Omnivore""}","","","","","","","","","","","","","","","","","","","","","demographics","[0,1,2,3,4]"
